[
  {
    "resourceType": "Medication",
    "id": "01994fb2-6759-7983-ae12-b2e770502c8e",
    "status": "active",
    "code": {
      "text": "Amoxicillin",
      "coding": [
        {
          "system": "http://www.nlm.nih.gov/research/umls/rxnorm",
          "code": "239191",
          "display": "Amoxicillin"
        }
      ]
    },
    "form": {
      "coding": [
        {
          "system": "http://snomed.info/sct",
          "code": "385024007",
          "display": "suspension"
        }
      ]
    },
    "amount": {
      "numerator": {
        "value": 250,
        "unit": "mg",
        "system": "http://unitsofmeasure.org",
        "code": "mg"
      },
      "denominator": {
        "value": 5,
        "unit": "mL",
        "system": "http://unitsofmeasure.org",
        "code": "mL"
      }
    },
    "extension": [
      {
        "url": "https://metriport.com/data-extraction",
        "valueString": "Amoxicillin 250 mg/5 mL oral suspension, give 10 mL by mouth three times daily for 7 days as needed",
        "valueReference": {
          "reference": "Encounter/4c566bb0-a70b-4af6-b1d0-e4bf2fa87f0c"
        }
      }
    ]
  },
  {
    "resourceType": "MedicationStatement",
    "id": "01994fb2-675a-7b36-8444-31d0ad6a1406",
    "status": "active",
    "medicationReference": {
      "reference": "Medication/01994fb2-6759-7983-ae12-b2e770502c8e"
    },
    "subject": {
      "reference": "Patient/123",
      "id": "123"
    },
    "dosage": [
      {
        "text": "10 mL",
        "doseAndRate": [
          {
            "extension": [
              {
                "url": "https://metriport.com/data-extraction",
                "valueString": "10 mL"
              }
            ],
            "doseQuantity": {
              "value": 10,
              "unit": "mL",
              "system": "http://unitsofmeasure.org",
              "code": "mL"
            }
          }
        ]
      }
    ],
    "extension": [
      {
        "url": "https://metriport.com/data-extraction",
        "valueString": "Amoxicillin 250 mg/5 mL oral suspension, give 10 mL by mouth three times daily for 7 days as needed",
        "valueReference": {
          "reference": "Encounter/4c566bb0-a70b-4af6-b1d0-e4bf2fa87f0c"
        }
      }
    ]
  },
  {
    "resourceType": "Medication",
    "id": "01994fb2-675a-7b36-8444-31d125ec543a",
    "status": "active",
    "code": {
      "text": "Aspirin",
      "coding": [
        {
          "system": "http://www.nlm.nih.gov/research/umls/rxnorm",
          "code": "243670",
          "display": "Aspirin"
        }
      ]
    },
    "form": {
      "coding": [
        {
          "system": "http://snomed.info/sct",
          "code": "385055001",
          "display": "tablet"
        }
      ]
    },
    "extension": [
      {
        "url": "https://metriport.com/data-extraction",
        "valueString": "Aspirin 81 mg tablet daily",
        "valueReference": {
          "reference": "Encounter/4c566bb0-a70b-4af6-b1d0-e4bf2fa87f0c"
        }
      }
    ]
  },
  {
    "resourceType": "MedicationStatement",
    "id": "01994fb2-675a-7b36-8444-31d247250de1",
    "status": "active",
    "medicationReference": {
      "reference": "Medication/01994fb2-675a-7b36-8444-31d125ec543a"
    },
    "subject": {
      "reference": "Patient/123",
      "id": "123"
    },
    "dosage": [
      {
        "text": "81 mg",
        "doseAndRate": [
          {
            "extension": [
              {
                "url": "https://metriport.com/data-extraction",
                "valueString": "81 mg"
              }
            ],
            "doseQuantity": {
              "value": 81,
              "unit": "mg",
              "system": "http://unitsofmeasure.org",
              "code": "mg"
            }
          }
        ]
      }
    ],
    "extension": [
      {
        "url": "https://metriport.com/data-extraction",
        "valueString": "Aspirin 81 mg tablet daily",
        "valueReference": {
          "reference": "Encounter/4c566bb0-a70b-4af6-b1d0-e4bf2fa87f0c"
        }
      }
    ]
  },
  {
    "resourceType": "Medication",
    "id": "01994fb2-675a-7b36-8444-31d33dd2e128",
    "status": "active",
    "code": {
      "text": "Heparin",
      "coding": [
        {
          "system": "http://www.nlm.nih.gov/research/umls/rxnorm",
          "code": "1659263",
          "display": "Heparin"
        }
      ]
    },
    "amount": {
      "numerator": {
        "value": 1000,
        "unit": "U",
        "system": "http://unitsofmeasure.org",
        "code": "U"
      },
      "denominator": {
        "value": 1,
        "unit": "mL",
        "system": "http://unitsofmeasure.org",
        "code": "mL"
      }
    },
    "extension": [
      {
        "url": "https://metriport.com/data-extraction",
        "valueString": "Heparin 1000 units/mL injection, 5,000 units subcutaneously in the left thigh every 12 hours at a rate of 1 mL/min, tapering the dose by 1,000 units every 3 days",
        "valueReference": {
          "reference": "Encounter/4c566bb0-a70b-4af6-b1d0-e4bf2fa87f0c"
        }
      }
    ]
  },
  {
    "resourceType": "MedicationStatement",
    "id": "01994fb2-675a-7b36-8444-31d45c0e3701",
    "status": "active",
    "medicationReference": {
      "reference": "Medication/01994fb2-675a-7b36-8444-31d33dd2e128"
    },
    "subject": {
      "reference": "Patient/123",
      "id": "123"
    },
    "dosage": [
      {
        "text": "5,000 units",
        "doseAndRate": [
          {
            "extension": [
              {
                "url": "https://metriport.com/data-extraction",
                "valueString": "5,000 units"
              }
            ],
            "doseQuantity": {
              "value": 5000,
              "unit": "U",
              "system": "http://unitsofmeasure.org",
              "code": "U"
            }
          }
        ]
      }
    ],
    "extension": [
      {
        "url": "https://metriport.com/data-extraction",
        "valueString": "Heparin 1000 units/mL injection, 5,000 units subcutaneously in the left thigh every 12 hours at a rate of 1 mL/min, tapering the dose by 1,000 units every 3 days",
        "valueReference": {
          "reference": "Encounter/4c566bb0-a70b-4af6-b1d0-e4bf2fa87f0c"
        }
      }
    ]
  }
]