{
    "resourceType": "Bundle",
    "type": "batch",
    "entry": [
        {
            "fullUrl": "urn:uuid:95d40023-b479-35a9-bb79-e181faf7bb61",
            "resource": {
                "resourceType": "Composition",
                "id": "95d40023-b479-35a9-bb79-e181faf7bb61",
                "identifier": {
                    "use": "official",
                    "value": "2.16.840.1.113883.19.4.27"
                },
                "status": "final",
                "type": {
                    "coding": [
                        {
                            "code": "18748-4",
                            "display": "Diagnostic Imaging Report",
                            "system": "http://loinc.org"
                        }
                    ]
                },
                "date": "2005-03-29T22:15:04.000Z",
                "title": "Chest X-Ray, PA and LAT View",
                "confidentiality": "N",
                "attester": [
                    {
                        "mode": "legal",
                        "time": "2005-03-30T03:44:11.000Z",
                        "party": {
                            "reference": "Practitioner/d276aed6-83a7-313b-b45b-d59f2aafe9ad"
                        }
                    }
                ],
                "event": [
                    {
                        "period": {
                            "start": "2006-08-23T22:24:00.000Z"
                        }
                    }
                ],
                "section": [
                    {
                        "title": "DICOM Object Catalog",
                        "text": {
                            "status": "generated",
                            "div": "<div xmlns=\"http://www.w3.org/1999/xhtml\">DICOM Object Catalog</div>"
                        },
                        "code": {
                            "coding": [
                                {
                                    "code": "121181",
                                    "display": "DICOM Object Catalog",
                                    "system": "urn:oid:1.2.840.10008.2.16.4"
                                }
                            ]
                        },
                        "mode": "snapshot"
                    },
                    {
                        "title": "Indications for Procedure",
                        "text": {
                            "status": "generated",
                            "div": "<div xmlns=\"http://www.w3.org/1999/xhtml\">Indications for Procedure</div>"
                        },
                        "code": {
                            "coding": [
                                {
                                    "code": "121109",
                                    "display": "Indications for Procedure",
                                    "system": "urn:oid:1.2.840.10008.2.16.4"
                                }
                            ]
                        },
                        "mode": "snapshot"
                    },
                    {
                        "title": "History",
                        "text": {
                            "status": "generated",
                            "div": "<div xmlns=\"http://www.w3.org/1999/xhtml\">History</div>"
                        },
                        "code": {
                            "coding": [
                                {
                                    "code": "11329-0",
                                    "display": "History",
                                    "system": "http://loinc.org"
                                }
                            ]
                        },
                        "mode": "snapshot"
                    },
                    {
                        "title": "Findings",
                        "text": {
                            "status": "generated",
                            "div": "<div xmlns=\"http://www.w3.org/1999/xhtml\">Findings</div>"
                        },
                        "code": {
                            "coding": [
                                {
                                    "code": "121070",
                                    "display": "Findings",
                                    "system": "urn:oid:1.2.840.10008.2.16.4"
                                }
                            ]
                        },
                        "mode": "snapshot"
                    },
                    {
                        "title": "Impressions",
                        "text": {
                            "status": "generated",
                            "div": "<div xmlns=\"http://www.w3.org/1999/xhtml\">Impressions</div>"
                        },
                        "code": {
                            "coding": [
                                {
                                    "code": "121072",
                                    "display": "Impressions",
                                    "system": "urn:oid:1.2.840.10008.2.16.4"
                                }
                            ]
                        },
                        "mode": "snapshot"
                    }
                ],
                "subject": {
                    "reference": "Patient/245c612d-841e-39c2-95a8-3b3239362f66"
                },
                "encounter": {
                    "reference": "Encounter/8e1a47b8-7bc0-3daf-ab61-ea10a1d99f27"
                },
                "custodian": {
                    "reference": "Organization/6af2a719-a618-34d6-90d1-0e1f1b07185c"
                },
                "author": [
                    {
                        "reference": "Practitioner/3fe2e310-74ad-398f-a2fb-d5abe2866f6a"
                    }
                ]
            },
            "request": {
                "method": "PUT",
                "url": "Composition/95d40023-b479-35a9-bb79-e181faf7bb61"
            }
        },
        {
            "fullUrl": "urn:uuid:d276aed6-83a7-313b-b45b-d59f2aafe9ad",
            "resource": {
                "resourceType": "Practitioner",
                "meta": {
                    "profile": [
                        "http://hl7.org/fhir/us/core/StructureDefinition/us-core-practitioner"
                    ]
                },
                "id": "d276aed6-83a7-313b-b45b-d59f2aafe9ad",
                "identifier": [
                    {
                        "system": "urn:oid:2.16.840.1.113883.19.5",
                        "value": "KP00017"
                    }
                ],
                "name": [
                    {
                        "family": "Seven",
                        "given": [
                            "Henry"
                        ]
                    }
                ],
                "address": [
                    {
                        "line": [
                            "21 North Ave."
                        ],
                        "city": "Burlington",
                        "state": "MA",
                        "country": "USA",
                        "postalCode": "02368"
                    }
                ],
                "telecom": [
                    {
                        "system": "phone",
                        "value": "(555)555-1003",
                        "use": "work"
                    }
                ]
            },
            "request": {
                "method": "PUT",
                "url": "Practitioner/d276aed6-83a7-313b-b45b-d59f2aafe9ad"
            }
        },
        {
            "fullUrl": "urn:uuid:8e1a47b8-7bc0-3daf-ab61-ea10a1d99f27",
            "resource": {
                "resourceType": "Encounter",
                "id": "8e1a47b8-7bc0-3daf-ab61-ea10a1d99f27",
                "status": "unknown",
                "identifier": [
                    {
                        "system": "urn:oid:1.3.6.4.1.4.1.2835.12",
                        "value": "9937012"
                    }
                ]
            },
            "request": {
                "method": "PUT",
                "url": "Encounter/8e1a47b8-7bc0-3daf-ab61-ea10a1d99f27"
            }
        },
        {
            "fullUrl": "urn:uuid:6af2a719-a618-34d6-90d1-0e1f1b07185c",
            "resource": {
                "resourceType": "Organization",
                "id": "6af2a719-a618-34d6-90d1-0e1f1b07185c",
                "identifier": [
                    {
                        "system": "urn:ietf:rfc:3986",
                        "value": "urn:uuid:2.16.840.1.113883.19.5"
                    }
                ],
                "name": "Good Health Clinic",
                "address": [
                    {
                        "use": "work",
                        "line": [
                            "17 Daws Rd."
                        ],
                        "city": "Blue Bell",
                        "state": "MA",
                        "country": "USA",
                        "postalCode": "02368"
                    }
                ],
                "telecom": [
                    {
                        "system": "phone",
                        "value": "(555)555-1212",
                        "use": "work"
                    }
                ]
            },
            "request": {
                "method": "PUT",
                "url": "Organization/6af2a719-a618-34d6-90d1-0e1f1b07185c"
            }
        },
        {
            "fullUrl": "urn:uuid:3fe2e310-74ad-398f-a2fb-d5abe2866f6a",
            "resource": {
                "resourceType": "Practitioner",
                "meta": {
                    "profile": [
                        "http://hl7.org/fhir/us/core/StructureDefinition/us-core-practitioner"
                    ]
                },
                "id": "3fe2e310-74ad-398f-a2fb-d5abe2866f6a",
                "identifier": [
                    {
                        "system": "http://hl7.org/fhir/sid/us-npi",
                        "value": "KP00017"
                    }
                ],
                "name": [
                    {
                        "family": "Seven",
                        "given": [
                            "Henry"
                        ]
                    }
                ],
                "address": [
                    {
                        "line": [
                            "21 North Ave."
                        ],
                        "city": "Burlington",
                        "state": "MA",
                        "country": "USA",
                        "postalCode": "02368"
                    }
                ],
                "telecom": [
                    {
                        "system": "phone",
                        "value": "(555)555-1003",
                        "use": "work"
                    }
                ],
                "qualification": [
                    {
                        "code": {
                            "coding": [
                                {
                                    "code": "200000000X",
                                    "display": "Allopathic &amp; Osteopathic Physicians",
                                    "system": "http://nucc.org/provider-taxonomy"
                                }
                            ]
                        }
                    }
                ]
            },
            "request": {
                "method": "PUT",
                "url": "Practitioner/3fe2e310-74ad-398f-a2fb-d5abe2866f6a"
            }
        },
        {
            "fullUrl": "urn:uuid:245c612d-841e-39c2-95a8-3b3239362f66",
            "resource": {
                "resourceType": "Patient",
                "meta": {
                    "profile": [
                        "http://hl7.org/fhir/us/core/StructureDefinition/us-core-patient"
                    ]
                },
                "id": "245c612d-841e-39c2-95a8-3b3239362f66",
                "identifier": [
                    {
                        "system": "urn:oid:2.16.840.1.113883.19.5",
                        "value": "12345"
                    }
                ],
                "name": [
                    {
                        "use": "usual",
                        "family": "Everyman",
                        "given": [
                            "Adam"
                        ]
                    }
                ],
                "birthDate": "1954-11-25",
                "extension": [
                    {
                        "url": "http://hl7.org/fhir/us/core/StructureDefinition/us-core-race",
                        "extension": [
                            {
                                "url": "ombCategory",
                                "valueCoding": {
                                    "code": "2106-3",
                                    "display": "White",
                                    "system": "urn:oid:2.16.840.1.113883.6.238"
                                }
                            },
                            {
                                "url": "text",
                                "valueString": "White"
                            }
                        ]
                    },
                    {
                        "url": "http://hl7.org/fhir/us/core/StructureDefinition/us-core-ethnicity",
                        "extension": [
                            {
                                "url": "ombCategory",
                                "valueCoding": {
                                    "code": "2186-5",
                                    "display": "Not Hispanic or Latino",
                                    "system": "urn:oid:2.16.840.1.113883.6.238"
                                }
                            },
                            {
                                "url": "text",
                                "valueString": "Not Hispanic or Latino"
                            }
                        ]
                    }
                ],
                "address": [
                    {
                        "use": "home",
                        "line": [
                            "17 Daws Rd."
                        ],
                        "city": "Blue Bell",
                        "state": "MA",
                        "country": "USA",
                        "postalCode": "02368"
                    }
                ],
                "telecom": [
                    {
                        "system": "phone",
                        "value": "(781)555-1212",
                        "use": "home"
                    }
                ],
                "communication": [
                    {
                        "language": {
                            "coding": [
                                {
                                    "system": "urn:ietf:bcp:47",
                                    "code": "fr-CN"
                                }
                            ]
                        },
                        "preferred": true
                    }
                ]
            },
            "request": {
                "method": "PUT",
                "url": "Patient/245c612d-841e-39c2-95a8-3b3239362f66"
            }
        },
        {
            "fullUrl": "urn:uuid:4c73c754-3fef-3509-a68d-94cd41387235",
            "resource": {
                "resourceType": "RelatedPerson",
                "id": "4c73c754-3fef-3509-a68d-94cd41387235",
                "relationship": [
                    {
                        "coding": [
                            {
                                "code": "GRFTH",
                                "display": "Grandfather",
                                "system": "urn:oid:2.16.840.1.113883.5.111"
                            }
                        ]
                    }
                ],
                "name": [
                    {
                        "family": "Relative",
                        "given": [
                            "Ralph"
                        ]
                    }
                ],
                "telecom": [
                    {
                        "system": "phone",
                        "value": "(781)555-1212",
                        "use": "home"
                    }
                ],
                "address": [
                    {
                        "use": "home",
                        "line": [
                            "17 Daws Rd."
                        ],
                        "city": "Blue Bell",
                        "state": "MA",
                        "country": "USA",
                        "postalCode": "02368"
                    }
                ],
                "patient": {
                    "reference": "Patient/245c612d-841e-39c2-95a8-3b3239362f66"
                }
            },
            "request": {
                "method": "PUT",
                "url": "RelatedPerson/4c73c754-3fef-3509-a68d-94cd41387235"
            }
        },
        {
            "fullUrl": "urn:uuid:81b6c611-fb01-3c16-8c27-5ec27c62aee2",
            "resource": {
                "resourceType": "DocumentReference",
                "id": "81b6c611-fb01-3c16-8c27-5ec27c62aee2",
                "type": {
                    "coding": [
                        {
                            "code": "18748-4",
                            "display": "Diagnostic Imaging Report",
                            "system": "http://loinc.org"
                        }
                    ]
                },
                "date": "2021-07-02T05:58:04.383Z",
                "status": "current",
                "content": [
                    {
                        "attachment": {
                            "contentType": "text/plain",
                            "data": "",
                            "hash": "D9Orm+LIuemm0xWSSjObK68DMck="
                        }
                    }
                ]
            },
            "request": {
                "method": "PUT",
                "url": "DocumentReference/81b6c611-fb01-3c16-8c27-5ec27c62aee2"
            }
        }
    ]
}