{
    "resourceType": "Bundle",
    "type": "batch",
    "entry": [
        {
            "fullUrl": "urn:uuid:1a47d4cd-2020-32cb-ac29-2685815c53eb",
            "resource": {
                "resourceType": "Composition",
                "id": "1a47d4cd-2020-32cb-ac29-2685815c53eb",
                "identifier": {
                    "use": "official",
                    "value": "2.16.840.1.113883.19"
                },
                "status": "final",
                "type": {
                    "coding": [
                        {
                            "code": "11506-3",
                            "display": "Subsequent evaluation note",
                            "system": "http://loinc.org"
                        }
                    ]
                },
                "date": "2005-03-29T22:15:04.000Z",
                "title": "Progress Note",
                "confidentiality": "N",
                "attester": [
                    {
                        "mode": "legal",
                        "time": "2005-03-30T03:44:11.000Z",
                        "party": {
                            "reference": "Practitioner/d503a497-3239-328b-900d-7fdff816f8a9"
                        }
                    }
                ],
                "event": [
                    {
                        "period": {
                            "start": "2010-06-01"
                        }
                    }
                ],
                "section": [
                    {
                        "title": "ALLERGIES AND ADVERSE REACTIONS",
                        "text": {
                            "status": "generated",
                            "div": "<div xmlns=\"http://www.w3.org/1999/xhtml\">ALLERGIES AND ADVERSE REACTIONS</div>"
                        },
                        "code": {
                            "coding": [
                                {
                                    "code": "48765-2",
                                    "system": "http://loinc.org"
                                }
                            ]
                        },
                        "mode": "snapshot"
                    },
                    {
                        "title": "ASSESSMENT",
                        "text": {
                            "status": "generated",
                            "div": "<div xmlns=\"http://www.w3.org/1999/xhtml\">ASSESSMENT</div>"
                        },
                        "code": {
                            "coding": [
                                {
                                    "code": "51848-0",
                                    "display": "ASSESSMENT",
                                    "system": "http://loinc.org"
                                }
                            ]
                        },
                        "mode": "snapshot"
                    },
                    {
                        "title": "CHIEF COMPLAINT",
                        "text": {
                            "status": "generated",
                            "div": "<div xmlns=\"http://www.w3.org/1999/xhtml\">CHIEF COMPLAINT</div>"
                        },
                        "code": {
                            "coding": [
                                {
                                    "code": "10154-3",
                                    "display": "CHIEF COMPLAINT",
                                    "system": "http://loinc.org"
                                }
                            ]
                        },
                        "mode": "snapshot"
                    },
                    {
                        "title": "MEDICATIONS",
                        "text": {
                            "status": "generated",
                            "div": "<div xmlns=\"http://www.w3.org/1999/xhtml\">MEDICATIONS</div>"
                        },
                        "code": {
                            "coding": [
                                {
                                    "code": "10160-0",
                                    "display": "HISTORY OF MEDICATION USE",
                                    "system": "http://loinc.org"
                                }
                            ]
                        },
                        "mode": "snapshot"
                    },
                    {
                        "title": "OBJECTIVE DATA",
                        "text": {
                            "status": "generated",
                            "div": "<div xmlns=\"http://www.w3.org/1999/xhtml\">OBJECTIVE DATA</div>"
                        },
                        "code": {
                            "coding": [
                                {
                                    "code": "61149-1",
                                    "display": "OBJECTIVE DATA ",
                                    "system": "http://loinc.org"
                                }
                            ]
                        },
                        "mode": "snapshot"
                    },
                    {
                        "title": "PHYSICAL EXAMINATION",
                        "text": {
                            "status": "generated",
                            "div": "<div xmlns=\"http://www.w3.org/1999/xhtml\">PHYSICAL EXAMINATION</div>"
                        },
                        "code": {
                            "coding": [
                                {
                                    "code": "29545-1",
                                    "display": "PHYSICAL FINDINGS",
                                    "system": "http://loinc.org"
                                }
                            ]
                        },
                        "mode": "snapshot"
                    },
                    {
                        "title": "TREATMENT PLAN",
                        "text": {
                            "status": "generated",
                            "div": "<div xmlns=\"http://www.w3.org/1999/xhtml\">TREATMENT PLAN</div>"
                        },
                        "code": {
                            "coding": [
                                {
                                    "code": "18776-5",
                                    "display": "Treatment plan",
                                    "system": "http://loinc.org"
                                }
                            ]
                        },
                        "mode": "snapshot",
                        "entry": [
                            {
                                "reference": "CarePlan/aa52d96a-5156-3dbf-8e82-9bc6c8fa229a"
                            },
                            {
                                "reference": "CarePlan/6217ad0e-53be-324b-8aef-1c88a47a953a"
                            },
                            {
                                "reference": "CarePlan/c6f7aada-76ff-344c-9b30-a6ab85957636"
                            },
                            {
                                "reference": "CarePlan/a7ae98ca-0928-3851-9082-dc25ae0c4a97"
                            }
                        ]
                    },
                    {
                        "title": "PROBLEMS",
                        "text": {
                            "status": "generated",
                            "div": "<div xmlns=\"http://www.w3.org/1999/xhtml\">PROBLEMS</div>"
                        },
                        "code": {
                            "coding": [
                                {
                                    "code": "11450-4",
                                    "display": "PROBLEM LIST",
                                    "system": "http://loinc.org"
                                }
                            ]
                        },
                        "mode": "snapshot"
                    },
                    {
                        "title": "RESULTS",
                        "text": {
                            "status": "generated",
                            "div": "<div xmlns=\"http://www.w3.org/1999/xhtml\">RESULTS</div>"
                        },
                        "code": {
                            "coding": [
                                {
                                    "code": "30954-2",
                                    "display": "RESULTS",
                                    "system": "http://loinc.org"
                                }
                            ]
                        },
                        "mode": "snapshot"
                    },
                    {
                        "title": "REVIEW OF SYSTEMS",
                        "text": {
                            "status": "generated",
                            "div": "<div xmlns=\"http://www.w3.org/1999/xhtml\">REVIEW OF SYSTEMS</div>"
                        },
                        "code": {
                            "coding": [
                                {
                                    "code": "10187-3",
                                    "display": "REVIEW OF SYSTEMS",
                                    "system": "http://loinc.org"
                                }
                            ]
                        },
                        "mode": "snapshot"
                    },
                    {
                        "title": "SUBJECTIVE DATA",
                        "text": {
                            "status": "generated",
                            "div": "<div xmlns=\"http://www.w3.org/1999/xhtml\">SUBJECTIVE DATA</div>"
                        },
                        "code": {
                            "coding": [
                                {
                                    "code": "61150-9",
                                    "display": "SUBJECTIVE",
                                    "system": "http://loinc.org"
                                }
                            ]
                        },
                        "mode": "snapshot"
                    },
                    {
                        "title": "VITAL SIGNS",
                        "text": {
                            "status": "generated",
                            "div": "<div xmlns=\"http://www.w3.org/1999/xhtml\">VITAL SIGNS</div>"
                        },
                        "code": {
                            "coding": [
                                {
                                    "code": "8716-3",
                                    "display": "VITAL SIGNS",
                                    "system": "http://loinc.org"
                                }
                            ]
                        },
                        "mode": "snapshot"
                    }
                ],
                "subject": {
                    "reference": "Patient/4c6e05ad-5408-3d42-a64f-b9d1e603c9c6"
                },
                "encounter": {
                    "reference": "Encounter/c618c0c7-a2e4-3866-9cdd-9cd967b64798"
                },
                "custodian": {
                    "reference": "Organization/6af2a719-a618-34d6-90d1-0e1f1b07185c"
                },
                "author": [
                    {
                        "reference": "Practitioner/d276aed6-83a7-313b-b45b-d59f2aafe9ad"
                    }
                ]
            },
            "request": {
                "method": "PUT",
                "url": "Composition/1a47d4cd-2020-32cb-ac29-2685815c53eb"
            }
        },
        {
            "fullUrl": "urn:uuid:d503a497-3239-328b-900d-7fdff816f8a9",
            "resource": {
                "resourceType": "Practitioner",
                "meta": {
                    "profile": [
                        "http://hl7.org/fhir/us/core/StructureDefinition/us-core-practitioner"
                    ]
                },
                "id": "d503a497-3239-328b-900d-7fdff816f8a9",
                "identifier": [
                    {
                        "system": "urn:oid:2.16.840.1.113883.19",
                        "value": "KP00017"
                    }
                ],
                "name": [
                    {
                        "family": "Seven",
                        "given": [
                            "Henry"
                        ]
                    }
                ],
                "address": [
                    {
                        "line": [
                            "21 North Ave."
                        ],
                        "city": "Burlington",
                        "state": "MA",
                        "country": "USA",
                        "postalCode": "02368"
                    }
                ],
                "telecom": [
                    {
                        "system": "phone",
                        "value": "(555)555-1003",
                        "use": "work"
                    }
                ]
            },
            "request": {
                "method": "PUT",
                "url": "Practitioner/d503a497-3239-328b-900d-7fdff816f8a9"
            }
        },
        {
            "fullUrl": "urn:uuid:c618c0c7-a2e4-3866-9cdd-9cd967b64798",
            "resource": {
                "resourceType": "Encounter",
                "id": "c618c0c7-a2e4-3866-9cdd-9cd967b64798",
                "status": "unknown",
                "class": {
                    "code": "99213",
                    "display": "Evaluation and Management",
                    "system": "urn:oid:2.16.840.1.113883.6.12"
                },
                "type": [
                    {
                        "coding": [
                            {
                                "code": "99213",
                                "display": "Evaluation and Management",
                                "system": "urn:oid:2.16.840.1.113883.6.12"
                            }
                        ]
                    }
                ],
                "identifier": [
                    {
                        "system": "urn:oid:2.16.840.1.113883.19",
                        "value": "9937012"
                    }
                ],
                "period": {
                    "start": "2005-03-29",
                    "end": "2005-03-29"
                },
                "location": [
                    {
                        "location": {
                            "reference": "Location/2c3b30b5-39e7-3c88-b345-eed888cc36f0"
                        }
                    }
                ]
            },
            "request": {
                "method": "PUT",
                "url": "Encounter/c618c0c7-a2e4-3866-9cdd-9cd967b64798"
            }
        },
        {
            "fullUrl": "urn:uuid:2c3b30b5-39e7-3c88-b345-eed888cc36f0",
            "resource": {
                "resourceType": "Location",
                "id": "2c3b30b5-39e7-3c88-b345-eed888cc36f0"
            },
            "request": {
                "method": "PUT",
                "url": "Location/2c3b30b5-39e7-3c88-b345-eed888cc36f0"
            }
        },
        {
            "fullUrl": "urn:uuid:6af2a719-a618-34d6-90d1-0e1f1b07185c",
            "resource": {
                "resourceType": "Organization",
                "id": "6af2a719-a618-34d6-90d1-0e1f1b07185c",
                "identifier": [
                    {
                        "system": "urn:ietf:rfc:3986",
                        "value": "urn:uuid:2.16.840.1.113883.19.5"
                    }
                ],
                "name": "Good Health Clinic",
                "address": [
                    {
                        "use": "work",
                        "line": [
                            "17 Daws Rd."
                        ],
                        "city": "Blue Bell",
                        "state": "MA",
                        "country": "USA",
                        "postalCode": "02368"
                    }
                ],
                "telecom": [
                    {
                        "system": "phone",
                        "value": "(555)555-1212",
                        "use": "work"
                    }
                ]
            },
            "request": {
                "method": "PUT",
                "url": "Organization/6af2a719-a618-34d6-90d1-0e1f1b07185c"
            }
        },
        {
            "fullUrl": "urn:uuid:d276aed6-83a7-313b-b45b-d59f2aafe9ad",
            "resource": {
                "resourceType": "Practitioner",
                "meta": {
                    "profile": [
                        "http://hl7.org/fhir/us/core/StructureDefinition/us-core-practitioner"
                    ]
                },
                "id": "d276aed6-83a7-313b-b45b-d59f2aafe9ad",
                "identifier": [
                    {
                        "system": "urn:oid:2.16.840.1.113883.19.5",
                        "value": "KP00017"
                    }
                ],
                "name": [
                    {
                        "family": "Seven",
                        "given": [
                            "Henry"
                        ]
                    }
                ],
                "address": [
                    {
                        "line": [
                            "21 North Ave."
                        ],
                        "city": "Burlington",
                        "state": "MA",
                        "country": "USA",
                        "postalCode": "02368"
                    }
                ],
                "telecom": [
                    {
                        "system": "phone",
                        "value": "(555)555-1003",
                        "use": "work"
                    }
                ]
            },
            "request": {
                "method": "PUT",
                "url": "Practitioner/d276aed6-83a7-313b-b45b-d59f2aafe9ad"
            }
        },
        {
            "fullUrl": "urn:uuid:4c6e05ad-5408-3d42-a64f-b9d1e603c9c6",
            "resource": {
                "resourceType": "Patient",
                "meta": {
                    "profile": [
                        "http://hl7.org/fhir/us/core/StructureDefinition/us-core-patient"
                    ]
                },
                "id": "4c6e05ad-5408-3d42-a64f-b9d1e603c9c6",
                "identifier": [
                    {
                        "system": "urn:oid:2.16.840.1.113883.19",
                        "value": "12345"
                    },
                    {
                        "system": "http://hl7.org/fhir/sid/us-ssn",
                        "value": "111-00-1234"
                    }
                ],
                "name": [
                    {
                        "use": "usual",
                        "family": "Everyman",
                        "given": [
                            "Adam",
                            "Frankie"
                        ],
                        "prefix": [
                            "Mr."
                        ]
                    }
                ],
                "birthDate": "1954-11-25",
                "gender": "male",
                "extension": [
                    {
                        "url": "http://hl7.org/fhir/us/core/StructureDefinition/us-core-race",
                        "extension": [
                            {
                                "url": "ombCategory",
                                "valueCoding": {
                                    "code": "2106-3",
                                    "display": "White",
                                    "system": "urn:oid:2.16.840.1.113883.6.238"
                                }
                            },
                            {
                                "url": "text",
                                "valueString": "White"
                            }
                        ]
                    },
                    {
                        "url": "http://hl7.org/fhir/us/core/StructureDefinition/us-core-ethnicity",
                        "extension": [
                            {
                                "url": "ombCategory",
                                "valueCoding": {
                                    "code": "2186-5",
                                    "display": "Not Hispanic or Latino",
                                    "system": "urn:oid:2.16.840.1.113883.6.238"
                                }
                            },
                            {
                                "url": "text",
                                "valueString": "Not Hispanic or Latino"
                            }
                        ]
                    }
                ],
                "address": [
                    {
                        "use": "home",
                        "line": [
                            "17 Daws Rd."
                        ],
                        "city": "Blue Bell",
                        "state": "MA",
                        "country": "US",
                        "postalCode": "02368"
                    }
                ],
                "telecom": [
                    {
                        "system": "phone",
                        "value": "(781)555-1212",
                        "use": "home"
                    }
                ],
                "communication": [
                    {
                        "language": {
                            "coding": [
                                {
                                    "system": "urn:ietf:bcp:47",
                                    "code": "fr-CN"
                                }
                            ]
                        },
                        "preferred": true
                    }
                ]
            },
            "request": {
                "method": "PUT",
                "url": "Patient/4c6e05ad-5408-3d42-a64f-b9d1e603c9c6"
            }
        },
        {
            "fullUrl": "urn:uuid:ab06cca0-80d5-3efe-9322-84093fb5c5da",
            "resource": {
                "resourceType": "RelatedPerson",
                "id": "ab06cca0-80d5-3efe-9322-84093fb5c5da",
                "relationship": [
                    {
                        "coding": [
                            {
                                "code": "GRFTH",
                                "display": "Grandfather",
                                "system": "urn:oid:2.16.840.1.113883.5.111"
                            }
                        ]
                    }
                ],
                "name": [
                    {
                        "family": "Relative",
                        "given": [
                            "Ralph"
                        ]
                    }
                ],
                "telecom": [
                    {
                        "system": "phone",
                        "value": "(781)555-1212",
                        "use": "home"
                    }
                ],
                "address": [
                    {
                        "use": "home",
                        "line": [
                            "17 Daws Rd."
                        ],
                        "city": "Blue Bell",
                        "state": "MA",
                        "country": "US",
                        "postalCode": "02368"
                    }
                ],
                "patient": {
                    "reference": "Patient/4c6e05ad-5408-3d42-a64f-b9d1e603c9c6"
                }
            },
            "request": {
                "method": "PUT",
                "url": "RelatedPerson/ab06cca0-80d5-3efe-9322-84093fb5c5da"
            }
        },
        {
            "fullUrl": "urn:uuid:11b25675-cc0b-3161-8e9b-707966718c2b",
            "resource": {
                "resourceType": "DocumentReference",
                "id": "11b25675-cc0b-3161-8e9b-707966718c2b",
                "type": {
                    "coding": [
                        {
                            "code": "11506-3",
                            "display": "Subsequent evaluation note",
                            "system": "http://loinc.org"
                        }
                    ]
                },
                "date": "2021-07-02T05:58:06.325Z",
                "status": "current",
                "content": [
                    {
                        "attachment": {
                            "contentType": "text/plain",
                            "data": "",
                            "hash": "lYbVYn4XTdKi7TD/MQXGiDhzU4E="
                        }
                    }
                ]
            },
            "request": {
                "method": "PUT",
                "url": "DocumentReference/11b25675-cc0b-3161-8e9b-707966718c2b"
            }
        }
    ]
}