{
    "resourceType": "Bundle",
    "type": "batch",
    "entry": [
        {
            "fullUrl": "urn:uuid:fde5572e-549b-37e7-a27a-9513b906cba3",
            "resource": {
                "resourceType": "Composition",
                "id": "fde5572e-549b-37e7-a27a-9513b906cba3",
                "identifier": {
                    "use": "official",
                    "value": "2.16.840.1.113883.19.5.99999.1"
                },
                "status": "final",
                "type": {
                    "coding": [
                        {
                            "code": "28570-0",
                            "display": "Procedure Note",
                            "system": "http://loinc.org"
                        }
                    ]
                },
                "date": "2012-09-16T23:11:00.000Z",
                "title": "Community Health and Hospitals: Procedure Note",
                "confidentiality": "N",
                "attester": [
                    {
                        "mode": "legal",
                        "time": "2009-02-27T18:00:00.000Z",
                        "party": {
                            "reference": "Practitioner/6a84aefd-6f50-3666-8ccb-bdad442a4c6a"
                        }
                    }
                ],
                "event": [
                    {
                        "period": {
                            "start": "2012-09-09T23:11:00.000Z"
                        }
                    }
                ],
                "section": [
                    {
                        "title": "Assessment",
                        "text": {
                            "status": "generated",
                            "div": "<div xmlns=\"http://www.w3.org/1999/xhtml\">Assessment</div>"
                        },
                        "code": {
                            "coding": [
                                {
                                    "code": "51848-0",
                                    "display": "ASSESSMENT",
                                    "system": "http://loinc.org"
                                }
                            ]
                        },
                        "mode": "snapshot"
                    },
                    {
                        "title": "Plan of Treatment",
                        "text": {
                            "status": "generated",
                            "div": "<div xmlns=\"http://www.w3.org/1999/xhtml\">Plan of Treatment</div>"
                        },
                        "code": {
                            "coding": [
                                {
                                    "code": "18776-5",
                                    "display": "Treatment plan",
                                    "system": "http://loinc.org"
                                }
                            ]
                        },
                        "mode": "snapshot",
                        "entry": [
                            {
                                "reference": "CarePlan/a3469712-3824-32c1-b591-08495194a604"
                            }
                        ]
                    },
                    {
                        "title": "Procedure Indications",
                        "text": {
                            "status": "generated",
                            "div": "<div xmlns=\"http://www.w3.org/1999/xhtml\">Procedure Indications</div>"
                        },
                        "code": {
                            "coding": [
                                {
                                    "code": "59768-2",
                                    "display": "PROCEDURE INDICATIONS",
                                    "system": "http://loinc.org"
                                }
                            ]
                        },
                        "mode": "snapshot"
                    },
                    {
                        "title": "Planned Procedure",
                        "text": {
                            "status": "generated",
                            "div": "<div xmlns=\"http://www.w3.org/1999/xhtml\">Planned Procedure</div>"
                        },
                        "code": {
                            "coding": [
                                {
                                    "code": "59772-4",
                                    "display": "Planned Procedure",
                                    "system": "http://loinc.org"
                                }
                            ]
                        },
                        "mode": "snapshot"
                    },
                    {
                        "title": "PROCEDURE DESCRIPTION",
                        "text": {
                            "status": "generated",
                            "div": "<div xmlns=\"http://www.w3.org/1999/xhtml\">PROCEDURE DESCRIPTION</div>"
                        },
                        "code": {
                            "coding": [
                                {
                                    "code": "29554-3",
                                    "display": "PROCEDURE DESCRIPTION",
                                    "system": "http://loinc.org"
                                }
                            ]
                        },
                        "mode": "snapshot"
                    },
                    {
                        "title": "Preoperative Diagnosis",
                        "text": {
                            "status": "generated",
                            "div": "<div xmlns=\"http://www.w3.org/1999/xhtml\">Preoperative Diagnosis</div>"
                        },
                        "code": {
                            "coding": [
                                {
                                    "code": "10219-4",
                                    "display": "SURGICAL OPERATION NOTE PREOPERATIVE DX",
                                    "system": "http://loinc.org"
                                }
                            ]
                        },
                        "mode": "snapshot"
                    },
                    {
                        "title": "Anesthesia",
                        "text": {
                            "status": "generated",
                            "div": "<div xmlns=\"http://www.w3.org/1999/xhtml\">Anesthesia</div>"
                        },
                        "code": {
                            "coding": [
                                {
                                    "code": "59774-0",
                                    "display": "PROCEDURE ANESTHESIA",
                                    "system": "http://loinc.org"
                                }
                            ]
                        },
                        "mode": "snapshot"
                    },
                    {
                        "title": "Surgical Drains",
                        "text": {
                            "status": "generated",
                            "div": "<div xmlns=\"http://www.w3.org/1999/xhtml\">Surgical Drains</div>"
                        },
                        "code": {
                            "coding": [
                                {
                                    "code": "11537-8",
                                    "display": "SURGICAL DRAINS",
                                    "system": "http://loinc.org"
                                }
                            ]
                        },
                        "mode": "snapshot"
                    },
                    {
                        "title": "Procedure Findings",
                        "text": {
                            "status": "generated",
                            "div": "<div xmlns=\"http://www.w3.org/1999/xhtml\">Procedure Findings</div>"
                        },
                        "code": {
                            "coding": [
                                {
                                    "code": "59776-5",
                                    "display": "PROCEDURE FINDINGS",
                                    "system": "http://loinc.org"
                                }
                            ]
                        },
                        "mode": "snapshot"
                    },
                    {
                        "title": "Estimated Blood Loss",
                        "text": {
                            "status": "generated",
                            "div": "<div xmlns=\"http://www.w3.org/1999/xhtml\">Estimated Blood Loss</div>"
                        },
                        "code": {
                            "coding": [
                                {
                                    "code": "59770-8",
                                    "display": "PROCEDURE ESTIMATED BLOOD LOSS",
                                    "system": "http://loinc.org"
                                }
                            ]
                        },
                        "mode": "snapshot"
                    },
                    {
                        "title": "Procedure Implants",
                        "text": {
                            "status": "generated",
                            "div": "<div xmlns=\"http://www.w3.org/1999/xhtml\">Procedure Implants</div>"
                        },
                        "code": {
                            "coding": [
                                {
                                    "code": "59771-6",
                                    "display": "PROCEDURE IMPLANTS",
                                    "system": "http://loinc.org"
                                }
                            ]
                        },
                        "mode": "snapshot"
                    },
                    {
                        "title": "Specimens Taken",
                        "text": {
                            "status": "generated",
                            "div": "<div xmlns=\"http://www.w3.org/1999/xhtml\">Specimens Taken</div>"
                        },
                        "code": {
                            "coding": [
                                {
                                    "code": "59773-2",
                                    "display": "PROCEDURE SPECIMENS TAKEN",
                                    "system": "http://loinc.org"
                                }
                            ]
                        },
                        "mode": "snapshot"
                    },
                    {
                        "title": "Complications",
                        "text": {
                            "status": "generated",
                            "div": "<div xmlns=\"http://www.w3.org/1999/xhtml\">Complications</div>"
                        },
                        "code": {
                            "coding": [
                                {
                                    "code": "55109-3",
                                    "display": "Complications",
                                    "system": "http://loinc.org"
                                }
                            ]
                        },
                        "mode": "snapshot"
                    },
                    {
                        "title": "Postoperative Diagnosis",
                        "text": {
                            "status": "generated",
                            "div": "<div xmlns=\"http://www.w3.org/1999/xhtml\">Postoperative Diagnosis</div>"
                        },
                        "code": {
                            "coding": [
                                {
                                    "code": "10218-6",
                                    "display": "POSTOPERATIVE DIAGNOSIS",
                                    "system": "http://loinc.org"
                                }
                            ]
                        },
                        "mode": "snapshot"
                    },
                    {
                        "title": "Postprocedure Diagnosis",
                        "text": {
                            "status": "generated",
                            "div": "<div xmlns=\"http://www.w3.org/1999/xhtml\">Postprocedure Diagnosis</div>"
                        },
                        "code": {
                            "coding": [
                                {
                                    "code": "59769-0",
                                    "display": "POSTPROCEDURE DIAGNOSIS",
                                    "system": "http://loinc.org"
                                }
                            ]
                        },
                        "mode": "snapshot"
                    },
                    {
                        "title": "Procedure Disposition",
                        "text": {
                            "status": "generated",
                            "div": "<div xmlns=\"http://www.w3.org/1999/xhtml\">Procedure Disposition</div>"
                        },
                        "code": {
                            "coding": [
                                {
                                    "code": "59775-7",
                                    "display": "PROCEDURE DISPOSITION",
                                    "system": "http://loinc.org"
                                }
                            ]
                        },
                        "mode": "snapshot"
                    }
                ],
                "subject": {
                    "reference": "Patient/f40da2df-7505-315a-9acb-55513a02c37b"
                },
                "encounter": {
                    "reference": "Encounter/5452cafc-449e-3798-a264-5502a074f560"
                },
                "custodian": {
                    "reference": "Organization/ce67676d-faa6-3ac3-8d71-f0a778b99cd0"
                },
                "author": [
                    {
                        "reference": "Practitioner/5942c17c-61a6-351b-a314-39fb9fc72561"
                    }
                ]
            },
            "request": {
                "method": "PUT",
                "url": "Composition/fde5572e-549b-37e7-a27a-9513b906cba3"
            }
        },
        {
            "fullUrl": "urn:uuid:6a84aefd-6f50-3666-8ccb-bdad442a4c6a",
            "resource": {
                "resourceType": "Practitioner",
                "meta": {
                    "profile": [
                        "http://hl7.org/fhir/us/core/StructureDefinition/us-core-practitioner"
                    ]
                },
                "id": "6a84aefd-6f50-3666-8ccb-bdad442a4c6a",
                "identifier": [
                    {
                        "system": "http://hl7.org/fhir/sid/us-npi",
                        "value": "999999999"
                    }
                ],
                "name": [
                    {
                        "family": "Seven",
                        "given": [
                            "Henry"
                        ]
                    }
                ],
                "address": [
                    {
                        "line": [
                            "1001 Village Avenue"
                        ],
                        "city": "Portland",
                        "state": "OR",
                        "country": "US",
                        "postalCode": "99123"
                    }
                ],
                "telecom": [
                    {
                        "system": "phone",
                        "value": "555-555-1002",
                        "use": "work"
                    }
                ]
            },
            "request": {
                "method": "PUT",
                "url": "Practitioner/6a84aefd-6f50-3666-8ccb-bdad442a4c6a"
            }
        },
        {
            "fullUrl": "urn:uuid:5452cafc-449e-3798-a264-5502a074f560",
            "resource": {
                "resourceType": "Encounter",
                "id": "5452cafc-449e-3798-a264-5502a074f560",
                "status": "unknown",
                "class": {
                    "code": "99213",
                    "display": "Evaluation and Management",
                    "system": "urn:oid:2.16.840.1.113883.6.12"
                },
                "type": [
                    {
                        "coding": [
                            {
                                "code": "99213",
                                "display": "Evaluation and Management",
                                "system": "urn:oid:2.16.840.1.113883.6.12"
                            }
                        ]
                    }
                ],
                "identifier": [
                    {
                        "system": "urn:oid:2.16.840.1.113883.19",
                        "value": "9937012"
                    }
                ],
                "period": {
                    "start": "2009-02-27T18:00:00.000Z",
                    "end": "2009-02-27T18:00:00.000Z"
                },
                "location": [
                    {
                        "location": {
                            "reference": "Location/2c3b30b5-39e7-3c88-b345-eed888cc36f0"
                        }
                    }
                ]
            },
            "request": {
                "method": "PUT",
                "url": "Encounter/5452cafc-449e-3798-a264-5502a074f560"
            }
        },
        {
            "fullUrl": "urn:uuid:2c3b30b5-39e7-3c88-b345-eed888cc36f0",
            "resource": {
                "resourceType": "Location",
                "id": "2c3b30b5-39e7-3c88-b345-eed888cc36f0"
            },
            "request": {
                "method": "PUT",
                "url": "Location/2c3b30b5-39e7-3c88-b345-eed888cc36f0"
            }
        },
        {
            "fullUrl": "urn:uuid:ce67676d-faa6-3ac3-8d71-f0a778b99cd0",
            "resource": {
                "resourceType": "Organization",
                "id": "ce67676d-faa6-3ac3-8d71-f0a778b99cd0",
                "identifier": [
                    {
                        "system": "http://hl7.org/fhir/sid/us-npi",
                        "value": "99999999"
                    }
                ],
                "name": "Community Health and Hospitals",
                "address": [
                    {
                        "use": "work",
                        "line": [
                            "1002 Healthcare Drive"
                        ],
                        "city": "Portland",
                        "state": "OR",
                        "country": "US",
                        "postalCode": "99123"
                    }
                ],
                "telecom": [
                    {
                        "system": "phone",
                        "value": "555-555-1002",
                        "use": "work"
                    }
                ]
            },
            "request": {
                "method": "PUT",
                "url": "Organization/ce67676d-faa6-3ac3-8d71-f0a778b99cd0"
            }
        },
        {
            "fullUrl": "urn:uuid:5942c17c-61a6-351b-a314-39fb9fc72561",
            "resource": {
                "resourceType": "Practitioner",
                "meta": {
                    "profile": [
                        "http://hl7.org/fhir/us/core/StructureDefinition/us-core-practitioner"
                    ]
                },
                "id": "5942c17c-61a6-351b-a314-39fb9fc72561",
                "identifier": [
                    {
                        "system": "http://hl7.org/fhir/sid/us-npi",
                        "value": "99999999"
                    }
                ],
                "name": [
                    {
                        "family": "Seven",
                        "given": [
                            "Henry"
                        ]
                    }
                ],
                "address": [
                    {
                        "line": [
                            "1002 Healthcare Drive"
                        ],
                        "city": "Portland",
                        "state": "OR",
                        "country": "US",
                        "postalCode": "99123"
                    }
                ],
                "telecom": [
                    {
                        "system": "phone",
                        "value": "555-555-1002",
                        "use": "work"
                    }
                ],
                "qualification": [
                    {
                        "code": {
                            "coding": [
                                {
                                    "code": "200000000X",
                                    "display": "Allopathic &amp; Osteopathic Physicians",
                                    "system": "http://nucc.org/provider-taxonomy"
                                }
                            ]
                        }
                    }
                ]
            },
            "request": {
                "method": "PUT",
                "url": "Practitioner/5942c17c-61a6-351b-a314-39fb9fc72561"
            }
        },
        {
            "fullUrl": "urn:uuid:f40da2df-7505-315a-9acb-55513a02c37b",
            "resource": {
                "resourceType": "Patient",
                "meta": {
                    "profile": [
                        "http://hl7.org/fhir/us/core/StructureDefinition/us-core-patient"
                    ]
                },
                "id": "f40da2df-7505-315a-9acb-55513a02c37b",
                "identifier": [
                    {
                        "system": "urn:oid:2.16.840.1.113883.19.5.99999.2",
                        "value": "998991"
                    },
                    {
                        "system": "http://hl7.org/fhir/sid/us-ssn",
                        "value": "111-00-2330"
                    }
                ],
                "name": [
                    {
                        "use": "usual",
                        "family": "Jones",
                        "given": [
                            "Isabella"
                        ]
                    }
                ],
                "birthDate": "2005-05-01",
                "gender": "female",
                "extension": [
                    {
                        "url": "http://hl7.org/fhir/us/core/StructureDefinition/us-core-race",
                        "extension": [
                            {
                                "url": "detailed",
                                "valueCoding": {
                                    "code": "1966-1",
                                    "display": "Aleut",
                                    "system": "urn:oid:2.16.840.1.113883.6.238"
                                }
                            },
                            {
                                "url": "text",
                                "valueString": "Aleut"
                            }
                        ]
                    },
                    {
                        "url": "http://hl7.org/fhir/us/core/StructureDefinition/us-core-ethnicity",
                        "extension": [
                            {
                                "url": "ombCategory",
                                "valueCoding": {
                                    "code": "2186-5",
                                    "display": "Not Hispanic or Latino",
                                    "system": "urn:oid:2.16.840.1.113883.6.238"
                                }
                            },
                            {
                                "url": "text",
                                "valueString": "Not Hispanic or Latino"
                            }
                        ]
                    }
                ],
                "address": [
                    {
                        "use": "home",
                        "line": [
                            "1357 Amber Drive"
                        ],
                        "city": "Beaverton",
                        "state": "OR",
                        "country": "US",
                        "postalCode": "97867"
                    }
                ],
                "telecom": [
                    {
                        "system": "phone",
                        "value": "(816)276-6909",
                        "use": "home"
                    }
                ],
                "communication": [
                    {
                        "language": {
                            "coding": [
                                {
                                    "system": "urn:ietf:bcp:47",
                                    "code": "en",
                                    "display": "English"
                                }
                            ]
                        },
                        "preferred": true
                    }
                ]
            },
            "request": {
                "method": "PUT",
                "url": "Patient/f40da2df-7505-315a-9acb-55513a02c37b"
            }
        },
        {
            "fullUrl": "urn:uuid:404aabde-037c-3ea6-85cb-d4ceefa1d2c8",
            "resource": {
                "resourceType": "RelatedPerson",
                "id": "404aabde-037c-3ea6-85cb-d4ceefa1d2c8",
                "relationship": [
                    {
                        "coding": [
                            {
                                "code": "GRPRN",
                                "display": "Grandparent",
                                "system": "urn:oid:2.16.840.1.113883.5.111"
                            }
                        ]
                    }
                ],
                "name": [
                    {
                        "family": "Jones",
                        "given": [
                            "Ralph"
                        ]
                    }
                ],
                "telecom": [
                    {
                        "system": "phone",
                        "value": "(816)276-6909",
                        "use": "home"
                    }
                ],
                "address": [
                    {
                        "use": "home",
                        "line": [
                            "1357 Amber Drive"
                        ],
                        "city": "Beaverton",
                        "state": "OR",
                        "country": "US",
                        "postalCode": "97867"
                    }
                ],
                "patient": {
                    "reference": "Patient/f40da2df-7505-315a-9acb-55513a02c37b"
                }
            },
            "request": {
                "method": "PUT",
                "url": "RelatedPerson/404aabde-037c-3ea6-85cb-d4ceefa1d2c8"
            }
        },
        {
            "fullUrl": "urn:uuid:aef02dbc-b70c-3d68-8e23-5fd1688a0e7a",
            "resource": {
                "resourceType": "DocumentReference",
                "id": "aef02dbc-b70c-3d68-8e23-5fd1688a0e7a",
                "type": {
                    "coding": [
                        {
                            "code": "28570-0",
                            "display": "Procedure Note",
                            "system": "http://loinc.org"
                        }
                    ]
                },
                "date": "2021-07-02T05:58:06.200Z",
                "status": "current",
                "content": [
                    {
                        "attachment": {
                            "contentType": "text/plain",
                            "data": "",
                            "hash": "vGNIoNepLC5Og0vbQ8Laae6ADic="
                        }
                    }
                ]
            },
            "request": {
                "method": "PUT",
                "url": "DocumentReference/aef02dbc-b70c-3d68-8e23-5fd1688a0e7a"
            }
        }
    ]
}