{
    "resourceType": "Bundle",
    "type": "batch",
    "entry": [
        {
            "fullUrl": "urn:uuid:600552e7-9ea0-3324-a314-aa2772770e8c",
            "resource": {
                "resourceType": "Composition",
                "id": "600552e7-9ea0-3324-a314-aa2772770e8c",
                "identifier": {
                    "use": "official",
                    "value": "1.3.6.1.4.1.22812.3.99930.3.1"
                },
                "status": "final",
                "type": {
                    "coding": [
                        {
                            "code": "34133-9",
                            "display": "SUMMARIZATION OF EPISODE NOTE",
                            "system": "http://loinc.org"
                        }
                    ]
                },
                "date": "2013-01-30T13:00:51.000Z",
                "title": "Continuity of Care Document",
                "confidentiality": "V",
                "attester": [
                    {
                        "mode": "legal",
                        "time": "2013-01-30T13:00:51.000Z",
                        "party": {
                            "reference": "Practitioner/c479e34b-fd7d-3990-8450-1746cb2d2fc9"
                        }
                    }
                ],
                "event": [
                    {
                        "period": {
                            "start": "2012-08-15T09:00:51.000Z"
                        }
                    }
                ],
                "section": [
                    {
                        "title": "Reason For Referral",
                        "text": {
                            "status": "generated",
                            "div": "<div xmlns=\"http://www.w3.org/1999/xhtml\">Reason For Referral</div>"
                        },
                        "code": {
                            "coding": [
                                {
                                    "code": "42349-1",
                                    "display": "Reason For Referral",
                                    "system": "http://loinc.org"
                                }
                            ]
                        },
                        "mode": "snapshot"
                    },
                    {
                        "title": "Functional Status",
                        "text": {
                            "status": "generated",
                            "div": "<div xmlns=\"http://www.w3.org/1999/xhtml\">Functional Status</div>"
                        },
                        "code": {
                            "coding": [
                                {
                                    "code": "47420-5",
                                    "display": "Functional Status",
                                    "system": "http://loinc.org"
                                }
                            ]
                        },
                        "mode": "snapshot",
                        "entry": [
                            {
                                "reference": "Condition/981a3a1b-bf1f-39be-bf90-7d63d530a79f"
                            },
                            {
                                "reference": "Condition/27c44f66-c856-317b-b86a-a27b1144855b"
                            }
                        ]
                    },
                    {
                        "title": "Problems",
                        "text": {
                            "status": "generated",
                            "div": "<div xmlns=\"http://www.w3.org/1999/xhtml\">Problems</div>"
                        },
                        "code": {
                            "coding": [
                                {
                                    "code": "11450-4",
                                    "display": "Problem List",
                                    "system": "http://loinc.org"
                                }
                            ]
                        },
                        "mode": "snapshot",
                        "entry": [
                            {
                                "reference": "Condition/2e298bd2-c7a7-3e4c-9b04-62fdcc458048"
                            },
                            {
                                "reference": "Condition/f504b238-7cb9-3e16-9f11-65704b6b0e21"
                            }
                        ]
                    },
                    {
                        "title": "Medications",
                        "text": {
                            "status": "generated",
                            "div": "<div xmlns=\"http://www.w3.org/1999/xhtml\">Medications</div>"
                        },
                        "code": {
                            "coding": [
                                {
                                    "code": "10160-0",
                                    "display": "History of medication use",
                                    "system": "http://loinc.org"
                                }
                            ]
                        },
                        "mode": "snapshot",
                        "entry": [
                            {
                                "reference": "MedicationStatement/15f2de74-09de-3158-bd6a-37a8ba545506"
                            }
                        ]
                    },
                    {
                        "title": "Allergies and Adverse Reactions",
                        "text": {
                            "status": "generated",
                            "div": "<div xmlns=\"http://www.w3.org/1999/xhtml\">Allergies and Adverse Reactions</div>"
                        },
                        "code": {
                            "coding": [
                                {
                                    "code": "48765-2",
                                    "display": "Allergies, adverse reactions, alerts",
                                    "system": "http://loinc.org"
                                }
                            ]
                        },
                        "mode": "snapshot",
                        "entry": [
                            {
                                "reference": "AllergyIntolerance/cdf8b57d-f863-3dd3-b933-c14016a9c203",
                                "display": "Penicillin G benzathine"
                            },
                            {
                                "reference": "AllergyIntolerance/529d06cc-640e-3493-9006-bd95f2a4214a",
                                "display": "Codeine"
                            }
                        ]
                    },
                    {
                        "title": "Immunization",
                        "text": {
                            "status": "generated",
                            "div": "<div xmlns=\"http://www.w3.org/1999/xhtml\">Immunization</div>"
                        },
                        "code": {
                            "coding": [
                                {
                                    "code": "11369-6",
                                    "display": "Immunizations",
                                    "system": "http://loinc.org"
                                }
                            ]
                        },
                        "mode": "snapshot",
                        "entry": [
                            {
                                "reference": "Immunization/a1e4769a-d837-3f2c-9fe8-bdcc13057c6d"
                            }
                        ]
                    },
                    {
                        "title": "Social History",
                        "text": {
                            "status": "generated",
                            "div": "<div xmlns=\"http://www.w3.org/1999/xhtml\">Social History</div>"
                        },
                        "code": {
                            "coding": [
                                {
                                    "code": "29762-2",
                                    "display": "Social History",
                                    "system": "http://loinc.org"
                                }
                            ]
                        },
                        "mode": "snapshot",
                        "entry": [
                            {
                                "reference": "Observation/4cc0353b-0d2a-366c-ba89-e4052fd7d1ac",
                                "display": "Assertion"
                            },
                            {
                                "reference": "Observation/5622c980-8d5a-31f2-bc95-0f17975b5f27",
                                "display": "Assertion"
                            }
                        ]
                    },
                    {
                        "title": "Vital Signs",
                        "text": {
                            "status": "generated",
                            "div": "<div xmlns=\"http://www.w3.org/1999/xhtml\">Vital Signs</div>"
                        },
                        "code": {
                            "coding": [
                                {
                                    "code": "8716-3",
                                    "display": "Vital Signs",
                                    "system": "http://loinc.org"
                                }
                            ]
                        },
                        "mode": "snapshot"
                    },
                    {
                        "title": "Results",
                        "text": {
                            "status": "generated",
                            "div": "<div xmlns=\"http://www.w3.org/1999/xhtml\">Results</div>"
                        },
                        "code": {
                            "coding": [
                                {
                                    "code": "30954-2",
                                    "display": "Relevant diagnostic tests and/or laboratory data",
                                    "system": "http://loinc.org"
                                }
                            ]
                        },
                        "mode": "snapshot",
                        "entry": [
                            {
                                "reference": "DiagnosticReport/c5f3619c-0fb2-3ee6-b7a0-ad92376b0bc1"
                            }
                        ]
                    },
                    {
                        "title": "Plan of Care",
                        "text": {
                            "status": "generated",
                            "div": "<div xmlns=\"http://www.w3.org/1999/xhtml\">Plan of Care</div>"
                        },
                        "code": {
                            "coding": [
                                {
                                    "code": "18776-5",
                                    "display": "Plan of Care",
                                    "system": "http://loinc.org"
                                }
                            ]
                        },
                        "mode": "snapshot",
                        "entry": [
                            {
                                "reference": "CarePlan/db05ea6f-0775-3a67-9440-6d964ac5c701"
                            },
                            {
                                "reference": "CarePlan/046ba3ec-c5a3-3eda-b2e3-3c15ecc86dbb"
                            },
                            {
                                "reference": "CarePlan/2896304b-a4c6-3f98-854f-228422278eb8"
                            }
                        ]
                    },
                    {
                        "title": "Instructions",
                        "text": {
                            "status": "generated",
                            "div": "<div xmlns=\"http://www.w3.org/1999/xhtml\">Instructions</div>"
                        },
                        "code": {
                            "coding": [
                                {
                                    "code": "69730-0",
                                    "display": "Instructions",
                                    "system": "http://loinc.org"
                                }
                            ]
                        },
                        "mode": "snapshot"
                    },
                    {
                        "title": "Encounters",
                        "text": {
                            "status": "generated",
                            "div": "<div xmlns=\"http://www.w3.org/1999/xhtml\">Encounters</div>"
                        },
                        "code": {
                            "coding": [
                                {
                                    "code": "46240-8",
                                    "display": "Encounters",
                                    "system": "http://loinc.org"
                                }
                            ]
                        },
                        "mode": "snapshot",
                        "entry": [
                            {
                                "reference": "Encounter/3d1f600d-b0b9-36ec-881c-90d5e69d3715"
                            }
                        ]
                    }
                ],
                "subject": {
                    "reference": "Patient/92769d70-b4a6-393b-94e1-6af32a4c35d4"
                },
                "encounter": {
                    "reference": "Encounter/def59397-9507-34b0-8f1b-0c01500e4903"
                },
                "custodian": {
                    "reference": "Organization/f8d02634-0f53-3647-87f7-bb430a374a52"
                }
            },
            "request": {
                "method": "PUT",
                "url": "Composition/600552e7-9ea0-3324-a314-aa2772770e8c"
            }
        },
        {
            "fullUrl": "urn:uuid:c479e34b-fd7d-3990-8450-1746cb2d2fc9",
            "resource": {
                "resourceType": "Practitioner",
                "meta": {
                    "profile": [
                        "http://hl7.org/fhir/us/core/StructureDefinition/us-core-practitioner"
                    ]
                },
                "id": "c479e34b-fd7d-3990-8450-1746cb2d2fc9",
                "identifier": [
                    {
                        "system": "http://hl7.org/fhir/sid/us-npi",
                        "value": "1111111111"
                    }
                ],
                "name": [
                    {
                        "family": "Khan",
                        "given": [
                            "Samir"
                        ],
                        "prefix": [
                            "Dr"
                        ]
                    }
                ],
                "address": [
                    {
                        "line": [
                            "Get Well Clinic",
                            "1004 Healthcare Dr."
                        ],
                        "city": "Portland",
                        "state": "OR",
                        "country": "US",
                        "postalCode": "97005"
                    }
                ],
                "telecom": [
                    {
                        "system": "phone",
                        "value": "+1-(555)555-1004",
                        "use": "temp"
                    }
                ]
            },
            "request": {
                "method": "PUT",
                "url": "Practitioner/c479e34b-fd7d-3990-8450-1746cb2d2fc9"
            }
        },
        {
            "fullUrl": "urn:uuid:def59397-9507-34b0-8f1b-0c01500e4903",
            "resource": {
                "resourceType": "Encounter",
                "id": "def59397-9507-34b0-8f1b-0c01500e4903",
                "status": "unknown",
                "identifier": [
                    {
                        "system": "urn:oid:1.3.6.1.4.1.22812.3.99930.3.3.4",
                        "value": "5283815"
                    }
                ],
                "period": {
                    "start": "2012-08-15T09:00:51.000Z",
                    "end": "2013-01-30T13:00:51.000Z"
                }
            },
            "request": {
                "method": "PUT",
                "url": "Encounter/def59397-9507-34b0-8f1b-0c01500e4903"
            }
        },
        {
            "fullUrl": "urn:uuid:f8d02634-0f53-3647-87f7-bb430a374a52",
            "resource": {
                "resourceType": "Organization",
                "id": "f8d02634-0f53-3647-87f7-bb430a374a52",
                "identifier": [
                    {
                        "system": "urn:oid:1.3.6.1.4.1.22812.3.99930.3",
                        "value": "3"
                    }
                ],
                "name": "Get Well Clinic",
                "address": [
                    {
                        "line": [
                            "Get Well Clinic",
                            "1004 Healthcare Dr."
                        ],
                        "city": "Portland",
                        "state": "OR",
                        "country": "US",
                        "postalCode": "97005"
                    }
                ],
                "telecom": [
                    {
                        "system": "phone",
                        "value": "+1-(555)555-1004",
                        "use": "temp"
                    }
                ]
            },
            "request": {
                "method": "PUT",
                "url": "Organization/f8d02634-0f53-3647-87f7-bb430a374a52"
            }
        },
        {
            "fullUrl": "urn:uuid:92769d70-b4a6-393b-94e1-6af32a4c35d4",
            "resource": {
                "resourceType": "Patient",
                "meta": {
                    "profile": [
                        "http://hl7.org/fhir/us/core/StructureDefinition/us-core-patient"
                    ]
                },
                "id": "92769d70-b4a6-393b-94e1-6af32a4c35d4",
                "identifier": [
                    {
                        "system": "urn:oid:1.3.6.1.4.1.22812.3.99930.3",
                        "value": "110107073916280"
                    }
                ],
                "name": [
                    {
                        "family": "Everyman",
                        "given": [
                            "Adam"
                        ]
                    }
                ],
                "birthDate": "1962-10-22",
                "extension": [
                    {
                        "url": "http://hl7.org/fhir/us/core/StructureDefinition/us-core-race",
                        "extension": [
                            {
                                "url": "ombCategory",
                                "valueCoding": {
                                    "code": "2106-3",
                                    "display": "White",
                                    "system": "urn:oid:2.16.840.1.113883.6.238"
                                }
                            },
                            {
                                "url": "text",
                                "valueString": "White"
                            }
                        ]
                    },
                    {
                        "url": "http://hl7.org/fhir/us/core/StructureDefinition/us-core-ethnicity",
                        "extension": [
                            {
                                "url": "ombCategory",
                                "valueCoding": {
                                    "code": "2186-5",
                                    "display": "Not Hispanic or Latino",
                                    "system": "urn:oid:2.16.840.1.113883.6.238"
                                }
                            },
                            {
                                "url": "text",
                                "valueString": "Not Hispanic or Latino"
                            }
                        ]
                    }
                ],
                "address": [
                    {
                        "use": "home",
                        "line": [
                            "1234 Six Forks"
                        ],
                        "city": "Portland",
                        "state": "OR",
                        "country": "US",
                        "postalCode": "97005"
                    }
                ],
                "telecom": [
                    {
                        "system": "phone",
                        "value": "+1-(555)555-3333",
                        "use": "home"
                    }
                ],
                "communication": [
                    {
                        "language": {
                            "coding": [
                                {
                                    "system": "urn:ietf:bcp:47",
                                    "code": "eng"
                                }
                            ]
                        },
                        "preferred": true
                    }
                ]
            },
            "request": {
                "method": "PUT",
                "url": "Patient/92769d70-b4a6-393b-94e1-6af32a4c35d4"
            }
        },
        {
            "fullUrl": "urn:uuid:7124235e-bb04-31bd-8022-123cef646356",
            "resource": {
                "resourceType": "AllergyIntolerance",
                "id": "7124235e-bb04-31bd-8022-123cef646356",
                "identifier": [
                    {
                        "system": "urn:oid:1.3.6.1.4.1.22812.3.99930.3.4.10.2",
                        "value": "613618700107"
                    },
                    {
                        "system": "urn:oid:1.3.6.1.4.1.22812.3.99930.3.4.10.2",
                        "value": "613618700109"
                    }
                ],
                "clinicalStatus": {
                    "coding": [
                        {
                            "system": "http://terminology.hl7.org/CodeSystem/allergyintolerance-clinical",
                            "code": "resolved"
                        }
                    ]
                },
                "reaction": [
                    {
                        "substance": {
                            "coding": [
                                {
                                    "code": "7982",
                                    "display": "Penicillin G benzathine",
                                    "system": "http://www.nlm.nih.gov/research/umls/rxnorm"
                                }
                            ]
                        },
                        "manifestation": [
                            {
                                "coding": [
                                    {
                                        "code": "247472004",
                                        "display": "Hives",
                                        "system": "http://snomed.info/sct"
                                    }
                                ]
                            }
                        ]
                    }
                ],
                "onsetDateTime": "1998-01-10",
                "patient": {
                    "reference": "Patient/92769d70-b4a6-393b-94e1-6af32a4c35d4"
                }
            },
            "request": {
                "method": "PUT",
                "url": "AllergyIntolerance/7124235e-bb04-31bd-8022-123cef646356"
            }
        },
        {
            "fullUrl": "urn:uuid:e0803d45-7917-3f1c-9f81-ae9717745cc9",
            "resource": {
                "resourceType": "AllergyIntolerance",
                "id": "e0803d45-7917-3f1c-9f81-ae9717745cc9",
                "identifier": [
                    {
                        "system": "urn:oid:1.3.6.1.4.1.22812.3.99930.3.4.10.2",
                        "value": "624373800001"
                    },
                    {
                        "system": "urn:oid:1.3.6.1.4.1.22812.3.99930.3.4.10.2",
                        "value": "637073500005"
                    }
                ],
                "clinicalStatus": {
                    "coding": [
                        {
                            "system": "http://terminology.hl7.org/CodeSystem/allergyintolerance-clinical",
                            "code": "resolved"
                        }
                    ]
                },
                "reaction": [
                    {
                        "substance": {
                            "coding": [
                                {
                                    "code": "2670",
                                    "display": "Codeine",
                                    "system": "http://snomed.info/sct"
                                }
                            ]
                        },
                        "manifestation": [
                            {
                                "coding": [
                                    {
                                        "code": "422587007",
                                        "display": "Nausea",
                                        "system": "http://snomed.info/sct"
                                    }
                                ]
                            }
                        ]
                    }
                ],
                "onsetDateTime": "2001-01-10T00:00:00.000Z",
                "patient": {
                    "reference": "Patient/92769d70-b4a6-393b-94e1-6af32a4c35d4"
                }
            },
            "request": {
                "method": "PUT",
                "url": "AllergyIntolerance/e0803d45-7917-3f1c-9f81-ae9717745cc9"
            }
        },
        {
            "fullUrl": "urn:uuid:9c0bf8bb-34da-344e-ba34-85bd0b777627",
            "resource": {
                "resourceType": "MedicationStatement",
                "id": "9c0bf8bb-34da-344e-ba34-85bd0b777627",
                "identifier": [
                    {
                        "system": "urn:oid:1.3.6.1.4.1.22812.3.99930.3.4.9",
                        "value": "659122500005"
                    },
                    {
                        "system": "urn:oid:1.3.6.1.4.1.22812.3.99930.3.4.9",
                        "value": "659122500007"
                    }
                ],
                "status": "completed",
                "dosage": [
                    {
                        "doseAndRate": [
                            {
                                "doseQuantity": {
                                    "value": 2,
                                    "unit": "Puffs"
                                }
                            }
                        ]
                    }
                ],
                "subject": {
                    "reference": "Patient/92769d70-b4a6-393b-94e1-6af32a4c35d4"
                },
                "medicationReference": {
                    "reference": "Medication/79af1fe5-461e-3134-b395-e9c0b94078ce"
                }
            },
            "request": {
                "method": "PUT",
                "url": "MedicationStatement/9c0bf8bb-34da-344e-ba34-85bd0b777627"
            }
        },
        {
            "fullUrl": "urn:uuid:79af1fe5-461e-3134-b395-e9c0b94078ce",
            "resource": {
                "resourceType": "Medication",
                "id": "79af1fe5-461e-3134-b395-e9c0b94078ce",
                "code": {
                    "coding": [
                        {
                            "code": "573621",
                            "display": "Albuterol 0.09 MG/ACTUAT metered dose",
                            "system": "http://www.nlm.nih.gov/research/umls/rxnorm"
                        }
                    ]
                }
            },
            "request": {
                "method": "PUT",
                "url": "Medication/79af1fe5-461e-3134-b395-e9c0b94078ce"
            }
        },
        {
            "fullUrl": "urn:uuid:e4183100-6a93-36fc-ae64-54c6466a5a56",
            "resource": {
                "resourceType": "Condition",
                "id": "e4183100-6a93-36fc-ae64-54c6466a5a56",
                "identifier": [
                    {
                        "system": "urn:oid:1.3.6.1.4.1.22812.3.99930.3.4.1.2.1",
                        "value": "615028800003"
                    },
                    {
                        "system": "urn:oid:1.3.6.1.4.1.22812.3.99930.3.4.1.2.1",
                        "value": "659935200001"
                    }
                ],
                "code": {
                    "coding": [
                        {
                            "code": "64109004",
                            "display": "Costochondritis",
                            "system": "http://snomed.info/sct"
                        }
                    ]
                },
                "onsetDateTime": "2012-08-15",
                "subject": {
                    "reference": "Patient/92769d70-b4a6-393b-94e1-6af32a4c35d4"
                }
            },
            "request": {
                "method": "PUT",
                "url": "Condition/e4183100-6a93-36fc-ae64-54c6466a5a56"
            }
        },
        {
            "fullUrl": "urn:uuid:7fb63c83-8033-3c16-95bd-86105c4b0a6b",
            "resource": {
                "resourceType": "Condition",
                "id": "7fb63c83-8033-3c16-95bd-86105c4b0a6b",
                "identifier": [
                    {
                        "system": "urn:oid:1.3.6.1.4.1.22812.3.99930.3.4.1.2.1",
                        "value": "636842200007"
                    },
                    {
                        "system": "urn:oid:1.3.6.1.4.1.22812.3.99930.3.4.1.2.1",
                        "value": "660100900011"
                    }
                ],
                "code": {
                    "coding": [
                        {
                            "code": "195967001",
                            "display": "Asthma",
                            "system": "http://snomed.info/sct"
                        }
                    ]
                },
                "onsetDateTime": "2011-09-25T05:00:00.000Z",
                "subject": {
                    "reference": "Patient/92769d70-b4a6-393b-94e1-6af32a4c35d4"
                }
            },
            "request": {
                "method": "PUT",
                "url": "Condition/7fb63c83-8033-3c16-95bd-86105c4b0a6b"
            }
        },
        {
            "fullUrl": "urn:uuid:bce14af7-2667-345f-8a93-c3916be5f145",
            "resource": {
                "resourceType": "DiagnosticReport",
                "id": "bce14af7-2667-345f-8a93-c3916be5f145",
                "identifier": [
                    {
                        "system": "urn:oid:1.3.6.1.4.1.22812.3.99930.3.4.5",
                        "value": "659988700005"
                    }
                ],
                "status": "final",
                "code": {
                    "coding": [
                        {
                            "code": "82374",
                            "display": "CO2",
                            "system": "urn:oid:2.16.840.1.113883.6.12"
                        }
                    ]
                },
                "effectiveDateTime": "2012-08-15",
                "subject": {
                    "reference": "Patient/92769d70-b4a6-393b-94e1-6af32a4c35d4"
                },
                "performer": [
                    {
                        "reference": "Practitioner/undefined"
                    }
                ],
                "result": [
                    {
                        "reference": "Observation/7622585b-002d-341c-8bea-cec41f537774"
                    }
                ]
            },
            "request": {
                "method": "PUT",
                "url": "DiagnosticReport/bce14af7-2667-345f-8a93-c3916be5f145"
            }
        },
        {
            "fullUrl": "urn:uuid:7622585b-002d-341c-8bea-cec41f537774",
            "resource": {
                "resourceType": "Observation",
                "meta": {
                    "profile": [
                        "http://hl7.org/fhir/us/core/StructureDefinition/us-core-observationresults"
                    ]
                },
                "id": "7622585b-002d-341c-8bea-cec41f537774",
                "identifier": [
                    {
                        "system": "urn:oid:1.3.6.1.4.1.22812.3.99930.3.4.5",
                        "value": "6599887000031"
                    },
                    {
                        "system": "urn:oid:1.3.6.1.4.1.22812.3.99930.3.4.5",
                        "value": "6599889000031"
                    }
                ],
                "category": [
                    {
                        "coding": [
                            {
                                "system": "http://terminology.hl7.org/CodeSystem/observation-category",
                                "code": "laboratory"
                            }
                        ]
                    }
                ],
                "status": "final",
                "code": {
                    "coding": [
                        {
                            "code": "2028-9",
                            "display": "CO2",
                            "system": "http://loinc.org"
                        }
                    ]
                },
                "effectiveDateTime": "2012-08-15",
                "valueQuantity": {
                    "value": 25,
                    "unit": "mmol/L"
                },
                "subject": {
                    "reference": "Patient/92769d70-b4a6-393b-94e1-6af32a4c35d4"
                }
            },
            "request": {
                "method": "PUT",
                "url": "Observation/7622585b-002d-341c-8bea-cec41f537774"
            }
        },
        {
            "fullUrl": "urn:uuid:c8943173-2976-3803-a940-f44263fab4e5",
            "resource": {
                "resourceType": "Observation",
                "meta": {
                    "profile": [
                        "http://hl7.org/fhir/us/core/StructureDefinition/us-core-observationresults"
                    ]
                },
                "id": "c8943173-2976-3803-a940-f44263fab4e5",
                "category": [
                    {
                        "coding": [
                            {
                                "system": "http://terminology.hl7.org/CodeSystem/observation-category",
                                "code": "social-history"
                            }
                        ]
                    }
                ],
                "status": "final",
                "code": {
                    "coding": [
                        {
                            "code": "ASSERTION",
                            "display": "Assertion",
                            "system": "urn:oid:2.16.840.1.113883.5.4"
                        }
                    ]
                },
                "effectivePeriod": {
                    "start": "2012"
                },
                "valueCodeableConcept": {
                    "coding": [
                        {
                            "code": "266919005",
                            "display": "Never smoker",
                            "system": "http://snomed.info/sct"
                        }
                    ]
                },
                "subject": {
                    "reference": "Patient/92769d70-b4a6-393b-94e1-6af32a4c35d4"
                }
            },
            "request": {
                "method": "PUT",
                "url": "Observation/c8943173-2976-3803-a940-f44263fab4e5"
            }
        },
        {
            "fullUrl": "urn:uuid:0dd56536-5b01-36fc-8030-3845a7f11873",
            "resource": {
                "resourceType": "Observation",
                "meta": {
                    "profile": [
                        "http://hl7.org/fhir/us/core/StructureDefinition/us-core-observationresults"
                    ]
                },
                "id": "0dd56536-5b01-36fc-8030-3845a7f11873",
                "category": [
                    {
                        "coding": [
                            {
                                "system": "http://terminology.hl7.org/CodeSystem/observation-category",
                                "code": "social-history"
                            }
                        ]
                    }
                ],
                "status": "final",
                "code": {
                    "coding": [
                        {
                            "code": "ASSERTION",
                            "display": "Assertion",
                            "system": "urn:oid:2.16.840.1.113883.5.4"
                        }
                    ]
                },
                "effectivePeriod": {
                    "start": "2012"
                },
                "valueCodeableConcept": {
                    "coding": [
                        {
                            "code": "428041000124106",
                            "display": "Current some day smoker",
                            "system": "http://snomed.info/sct"
                        }
                    ]
                },
                "subject": {
                    "reference": "Patient/92769d70-b4a6-393b-94e1-6af32a4c35d4"
                }
            },
            "request": {
                "method": "PUT",
                "url": "Observation/0dd56536-5b01-36fc-8030-3845a7f11873"
            }
        },
        {
            "fullUrl": "urn:uuid:a1e4769a-d837-3f2c-9fe8-bdcc13057c6d",
            "resource": {
                "resourceType": "Immunization",
                "id": "a1e4769a-d837-3f2c-9fe8-bdcc13057c6d",
                "identifier": [
                    {
                        "system": "urn:oid:1.3.6.1.4.1.22812.3.99930.3.4.4",
                        "value": "637382500009"
                    },
                    {
                        "system": "urn:oid:1.3.6.1.4.1.22812.3.99930.3.4.4",
                        "value": "637382500011"
                    }
                ],
                "occurrenceDateTime": "2012-08-15",
                "vaccineCode": {
                    "coding": [
                        {
                            "code": "88",
                            "display": "Influenza virus vaccine",
                            "system": "urn:oid:2.16.840.1.113883.12.292"
                        }
                    ]
                },
                "status": "completed",
                "route": {
                    "coding": [
                        {
                            "code": "C28161",
                            "display": "INTRAMUSCULAR",
                            "system": "urn:oid:2.16.840.1.113883.3.26.1.1"
                        }
                    ]
                },
                "site": {
                    "coding": [
                        {
                            "code": "368208006",
                            "display": "Left Arm",
                            "system": "http://snomed.info/sct"
                        }
                    ]
                },
                "patient": {
                    "reference": "Patient/92769d70-b4a6-393b-94e1-6af32a4c35d4"
                }
            },
            "request": {
                "method": "PUT",
                "url": "Immunization/a1e4769a-d837-3f2c-9fe8-bdcc13057c6d"
            }
        },
        {
            "fullUrl": "urn:uuid:4a7e0a3f-476b-3bce-b536-15c8483e9400",
            "resource": {
                "resourceType": "DocumentReference",
                "id": "4a7e0a3f-476b-3bce-b536-15c8483e9400",
                "type": {
                    "coding": [
                        {
                            "code": "34133-9",
                            "display": "SUMMARIZATION OF EPISODE NOTE",
                            "system": "http://loinc.org"
                        }
                    ]
                },
                "date": "2021-07-02T05:58:00.954Z",
                "status": "current",
                "content": [
                    {
                        "attachment": {
                            "contentType": "text/plain",
                            "data": "",
                            "hash": "ZSO1ZYdoc8CDBOVi/ehNGadA0QM="
                        }
                    }
                ]
            },
            "request": {
                "method": "PUT",
                "url": "DocumentReference/4a7e0a3f-476b-3bce-b536-15c8483e9400"
            }
        }
    ]
}