{
    "resourceType": "Bundle",
    "type": "batch",
    "entry": [
        {
            "fullUrl": "urn:uuid:32e8845c-13a0-3e6e-9bf8-d87924ff4de1",
            "resource": {
                "resourceType": "Composition",
                "id": "32e8845c-13a0-3e6e-9bf8-d87924ff4de1",
                "identifier": {
                    "use": "official",
                    "value": "2.16.840.1.113883.19.5.99999.1"
                },
                "status": "final",
                "type": {
                    "coding": [
                        {
                            "code": "34133-9",
                            "display": "Summarization of Episode Note",
                            "system": "http://loinc.org"
                        }
                    ]
                },
                "date": "2015-07-22T23:00:00.000Z",
                "title": "170.315_b1_toc_gold_sample2 test data",
                "confidentiality": "N",
                "attester": [
                    {
                        "mode": "legal",
                        "time": "2015-07-22",
                        "party": {
                            "reference": "Practitioner/9594155f-9967-3c61-8f07-d1bf404cea31"
                        }
                    }
                ],
                "event": [
                    {
                        "period": {
                            "start": "2015-07-22T23:00:00.000Z"
                        }
                    }
                ],
                "section": [
                    {
                        "title": "ALLERGIES AND ADVERSE REACTIONS",
                        "text": {
                            "status": "generated",
                            "div": "<div xmlns=\"http://www.w3.org/1999/xhtml\">ALLERGIES AND ADVERSE REACTIONS</div>"
                        },
                        "code": {
                            "coding": [
                                {
                                    "code": "48765-2",
                                    "system": "http://loinc.org"
                                }
                            ]
                        },
                        "mode": "snapshot",
                        "entry": [
                            {
                                "reference": "AllergyIntolerance/3e8c9b81-428f-3a87-ab7e-1305bd3d0dd5"
                            }
                        ]
                    },
                    {
                        "title": "MEDICATIONS",
                        "text": {
                            "status": "generated",
                            "div": "<div xmlns=\"http://www.w3.org/1999/xhtml\">MEDICATIONS</div>"
                        },
                        "code": {
                            "coding": [
                                {
                                    "code": "10160-0",
                                    "display": "HISTORY OF MEDICATION USE",
                                    "system": "http://loinc.org"
                                }
                            ]
                        },
                        "mode": "snapshot",
                        "entry": [
                            {
                                "reference": "MedicationStatement/5986ad6b-0201-35fc-b6df-fbf72c9649ac"
                            }
                        ]
                    },
                    {
                        "title": "Admission Medications",
                        "text": {
                            "status": "generated",
                            "div": "<div xmlns=\"http://www.w3.org/1999/xhtml\">Admission Medications</div>"
                        },
                        "code": {
                            "coding": [
                                {
                                    "code": "42346-7",
                                    "display": "MEDICATIONS ON ADMISSION",
                                    "system": "http://loinc.org"
                                }
                            ]
                        },
                        "mode": "snapshot"
                    },
                    {
                        "title": "Discharge Medications",
                        "text": {
                            "status": "generated",
                            "div": "<div xmlns=\"http://www.w3.org/1999/xhtml\">Discharge Medications</div>"
                        },
                        "code": {
                            "coding": [
                                {
                                    "code": "10183-2",
                                    "display": "Hospital Discharge Medications",
                                    "system": "http://loinc.org"
                                }
                            ]
                        },
                        "mode": "snapshot"
                    },
                    {
                        "title": "Problem List",
                        "text": {
                            "status": "generated",
                            "div": "<div xmlns=\"http://www.w3.org/1999/xhtml\">Problem List</div>"
                        },
                        "code": {
                            "coding": [
                                {
                                    "code": "11450-4",
                                    "display": "Problem List",
                                    "system": "http://loinc.org"
                                }
                            ]
                        },
                        "mode": "snapshot",
                        "entry": [
                            {
                                "reference": "Condition/59910fd5-7ea0-3bdc-838a-4770cd6b0dbd"
                            },
                            {
                                "reference": "Condition/e6efc9e3-3a5a-3bc7-915f-546a5ac98742"
                            }
                        ]
                    },
                    {
                        "title": "ENCOUNTERS",
                        "text": {
                            "status": "generated",
                            "div": "<div xmlns=\"http://www.w3.org/1999/xhtml\">ENCOUNTERS</div>"
                        },
                        "code": {
                            "coding": [
                                {
                                    "code": "46240-8",
                                    "display": "History of encounters",
                                    "system": "http://loinc.org"
                                }
                            ]
                        },
                        "mode": "snapshot"
                    },
                    {
                        "title": "Procedures",
                        "text": {
                            "status": "generated",
                            "div": "<div xmlns=\"http://www.w3.org/1999/xhtml\">Procedures</div>"
                        },
                        "code": {
                            "coding": [
                                {
                                    "code": "47519-4",
                                    "display": "PROCEDURES",
                                    "system": "http://loinc.org"
                                }
                            ]
                        },
                        "mode": "snapshot"
                    },
                    {
                        "title": "MEDICAL EQUIPMENT",
                        "text": {
                            "status": "generated",
                            "div": "<div xmlns=\"http://www.w3.org/1999/xhtml\">MEDICAL EQUIPMENT</div>"
                        },
                        "code": {
                            "coding": [
                                {
                                    "code": "46264-8",
                                    "system": "http://loinc.org"
                                }
                            ]
                        },
                        "mode": "snapshot",
                        "entry": [
                            {
                                "reference": "Device/db05a8c3-53e4-3cb7-aac9-64379d3d4150"
                            }
                        ]
                    },
                    {
                        "title": "IMMUNIZATIONS",
                        "text": {
                            "status": "generated",
                            "div": "<div xmlns=\"http://www.w3.org/1999/xhtml\">IMMUNIZATIONS</div>"
                        },
                        "code": {
                            "coding": [
                                {
                                    "code": "11369-6",
                                    "display": "History of immunizations",
                                    "system": "http://loinc.org"
                                }
                            ]
                        },
                        "mode": "snapshot",
                        "entry": [
                            {
                                "reference": "Immunization/00150e8a-03b7-3f77-95e9-36ca5e2805af"
                            }
                        ]
                    },
                    {
                        "title": "VITAL SIGNS",
                        "text": {
                            "status": "generated",
                            "div": "<div xmlns=\"http://www.w3.org/1999/xhtml\">VITAL SIGNS</div>"
                        },
                        "code": {
                            "coding": [
                                {
                                    "code": "8716-3",
                                    "display": "VITAL SIGNS",
                                    "system": "http://loinc.org"
                                }
                            ]
                        },
                        "mode": "snapshot"
                    },
                    {
                        "title": "SOCIAL HISTORY",
                        "text": {
                            "status": "generated",
                            "div": "<div xmlns=\"http://www.w3.org/1999/xhtml\">SOCIAL HISTORY</div>"
                        },
                        "code": {
                            "coding": [
                                {
                                    "code": "29762-2",
                                    "display": "Social History",
                                    "system": "http://loinc.org"
                                }
                            ]
                        },
                        "mode": "snapshot",
                        "entry": [
                            {
                                "reference": "Observation/51a2cc74-7683-32eb-b6ef-e889a8d3a7ca",
                                "display": "Tobacco smoking status NHIS"
                            },
                            {
                                "reference": "Observation/8758bd04-5901-341f-83cd-3f414a75b5a8",
                                "display": "Sex Assigned At Birth"
                            }
                        ]
                    },
                    {
                        "title": "RESULTS",
                        "text": {
                            "status": "generated",
                            "div": "<div xmlns=\"http://www.w3.org/1999/xhtml\">RESULTS</div>"
                        },
                        "code": {
                            "coding": [
                                {
                                    "code": "30954-2",
                                    "display": "RESULTS",
                                    "system": "http://loinc.org"
                                }
                            ]
                        },
                        "mode": "snapshot"
                    },
                    {
                        "title": "ASSESSMENTS",
                        "text": {
                            "status": "generated",
                            "div": "<div xmlns=\"http://www.w3.org/1999/xhtml\">ASSESSMENTS</div>"
                        },
                        "code": {
                            "coding": [
                                {
                                    "code": "51848-0",
                                    "display": "ASSESSMENTS",
                                    "system": "http://loinc.org"
                                }
                            ]
                        },
                        "mode": "snapshot"
                    },
                    {
                        "title": "TREATMENT PLAN",
                        "text": {
                            "status": "generated",
                            "div": "<div xmlns=\"http://www.w3.org/1999/xhtml\">TREATMENT PLAN</div>"
                        },
                        "code": {
                            "coding": [
                                {
                                    "code": "18776-5",
                                    "display": "Treatment plan",
                                    "system": "http://loinc.org"
                                }
                            ]
                        },
                        "mode": "snapshot"
                    },
                    {
                        "title": "Goals Section",
                        "text": {
                            "status": "generated",
                            "div": "<div xmlns=\"http://www.w3.org/1999/xhtml\">Goals Section</div>"
                        },
                        "code": {
                            "coding": [
                                {
                                    "code": "61146-7",
                                    "display": "Goals",
                                    "system": "http://loinc.org"
                                }
                            ]
                        },
                        "mode": "snapshot"
                    },
                    {
                        "title": "Health Concerns",
                        "text": {
                            "status": "generated",
                            "div": "<div xmlns=\"http://www.w3.org/1999/xhtml\">Health Concerns</div>"
                        },
                        "code": {
                            "coding": [
                                {
                                    "code": "75310-3",
                                    "display": "Health Concerns Document",
                                    "system": "http://loinc.org"
                                }
                            ]
                        },
                        "mode": "snapshot"
                    },
                    {
                        "title": "HOSPITAL DISCHARGE INSTRUCTIONS",
                        "text": {
                            "status": "generated",
                            "div": "<div xmlns=\"http://www.w3.org/1999/xhtml\">HOSPITAL DISCHARGE INSTRUCTIONS</div>"
                        },
                        "code": {
                            "coding": [
                                {
                                    "code": "8653-8",
                                    "display": "HOSPITAL DISCHARGE INSTRUCTIONS",
                                    "system": "http://loinc.org"
                                }
                            ]
                        },
                        "mode": "snapshot"
                    },
                    {
                        "title": "MENTAL STATUS",
                        "text": {
                            "status": "generated",
                            "div": "<div xmlns=\"http://www.w3.org/1999/xhtml\">MENTAL STATUS</div>"
                        },
                        "code": {
                            "coding": [
                                {
                                    "code": "10190-7",
                                    "display": "MENTAL STATUS",
                                    "system": "http://loinc.org"
                                }
                            ]
                        },
                        "mode": "snapshot"
                    },
                    {
                        "title": "FUNCTIONAL STATUS",
                        "text": {
                            "status": "generated",
                            "div": "<div xmlns=\"http://www.w3.org/1999/xhtml\">FUNCTIONAL STATUS</div>"
                        },
                        "code": {
                            "coding": [
                                {
                                    "code": "47420-5",
                                    "display": "Functional Status",
                                    "system": "http://loinc.org"
                                }
                            ]
                        },
                        "mode": "snapshot"
                    },
                    {
                        "title": "Interventions Section",
                        "text": {
                            "status": "generated",
                            "div": "<div xmlns=\"http://www.w3.org/1999/xhtml\">Interventions Section</div>"
                        },
                        "code": {
                            "coding": [
                                {
                                    "code": "62387-6",
                                    "display": "Interventions Provided",
                                    "system": "http://loinc.org"
                                }
                            ]
                        },
                        "mode": "snapshot"
                    }
                ],
                "subject": {
                    "reference": "Patient/1bb622d3-69a5-3b1b-957e-4ac0b73692ce"
                },
                "encounter": {
                    "reference": "Encounter/c88b69fb-321d-38a5-b2fb-36cb7979ecc2"
                },
                "custodian": {
                    "reference": "Organization/ce44e5d9-5483-35bb-9c73-20008e76cb72"
                },
                "author": [
                    {
                        "reference": "Practitioner/8bfc4fe1-9d73-3c6f-8cba-9124f9220b09"
                    }
                ]
            },
            "request": {
                "method": "PUT",
                "url": "Composition/32e8845c-13a0-3e6e-9bf8-d87924ff4de1"
            }
        },
        {
            "fullUrl": "urn:uuid:9594155f-9967-3c61-8f07-d1bf404cea31",
            "resource": {
                "resourceType": "Practitioner",
                "meta": {
                    "profile": [
                        "http://hl7.org/fhir/us/core/StructureDefinition/us-core-practitioner"
                    ]
                },
                "id": "9594155f-9967-3c61-8f07-d1bf404cea31",
                "identifier": [
                    {
                        "system": "http://hl7.org/fhir/sid/us-npi",
                        "value": "999998899"
                    }
                ],
                "name": [
                    {
                        "family": "Seven",
                        "given": [
                            "Henry"
                        ],
                        "prefix": [
                            "Dr"
                        ]
                    }
                ],
                "address": [
                    {
                        "line": [
                            "1002 Healthcare Dr"
                        ],
                        "city": "Portland",
                        "state": "OR",
                        "country": "US",
                        "postalCode": "97266"
                    }
                ],
                "telecom": [
                    {
                        "system": "phone",
                        "value": "+1(555)-555-1002",
                        "use": "work"
                    }
                ]
            },
            "request": {
                "method": "PUT",
                "url": "Practitioner/9594155f-9967-3c61-8f07-d1bf404cea31"
            }
        },
        {
            "fullUrl": "urn:uuid:c88b69fb-321d-38a5-b2fb-36cb7979ecc2",
            "resource": {
                "resourceType": "Encounter",
                "id": "c88b69fb-321d-38a5-b2fb-36cb7979ecc2",
                "status": "unknown",
                "identifier": [
                    {
                        "system": "urn:oid:2.16.840.1.113883.19",
                        "value": "9937012"
                    }
                ],
                "period": {
                    "start": "2015-07-22T23:00:00.000Z",
                    "end": "2015-07-25T01:00:00.000Z"
                }
            },
            "request": {
                "method": "PUT",
                "url": "Encounter/c88b69fb-321d-38a5-b2fb-36cb7979ecc2"
            }
        },
        {
            "fullUrl": "urn:uuid:ce44e5d9-5483-35bb-9c73-20008e76cb72",
            "resource": {
                "resourceType": "Organization",
                "id": "ce44e5d9-5483-35bb-9c73-20008e76cb72",
                "identifier": [
                    {
                        "system": "http://hl7.org/fhir/sid/us-npi",
                        "value": "99998899"
                    }
                ],
                "name": "Community Health and Hospitals",
                "address": [
                    {
                        "line": [
                            "1002 Healthcare Dr"
                        ],
                        "city": "Portland",
                        "state": "OR",
                        "country": "US",
                        "postalCode": "97266"
                    }
                ],
                "telecom": [
                    {
                        "system": "phone",
                        "value": "+1(555)-555-5000",
                        "use": "work"
                    }
                ]
            },
            "request": {
                "method": "PUT",
                "url": "Organization/ce44e5d9-5483-35bb-9c73-20008e76cb72"
            }
        },
        {
            "fullUrl": "urn:uuid:8bfc4fe1-9d73-3c6f-8cba-9124f9220b09",
            "resource": {
                "resourceType": "Practitioner",
                "meta": {
                    "profile": [
                        "http://hl7.org/fhir/us/core/StructureDefinition/us-core-practitioner"
                    ]
                },
                "id": "8bfc4fe1-9d73-3c6f-8cba-9124f9220b09",
                "identifier": [
                    {
                        "system": "http://hl7.org/fhir/sid/us-npi",
                        "value": "111111"
                    }
                ],
                "name": [
                    {
                        "family": "Seven",
                        "given": [
                            "Henry"
                        ],
                        "prefix": [
                            "Dr"
                        ]
                    }
                ],
                "address": [
                    {
                        "line": [
                            "1002 Healthcare Dr"
                        ],
                        "city": "Portland",
                        "state": "OR",
                        "country": "US",
                        "postalCode": "97266"
                    }
                ],
                "telecom": [
                    {
                        "system": "phone",
                        "value": "+1(555)-555-1002",
                        "use": "work"
                    }
                ],
                "qualification": [
                    {
                        "code": {
                            "coding": [
                                {
                                    "code": "281P00000X",
                                    "display": "Chronic Disease Hospital",
                                    "system": "http://nucc.org/provider-taxonomy"
                                }
                            ]
                        }
                    }
                ]
            },
            "request": {
                "method": "PUT",
                "url": "Practitioner/8bfc4fe1-9d73-3c6f-8cba-9124f9220b09"
            }
        },
        {
            "fullUrl": "urn:uuid:1bb622d3-69a5-3b1b-957e-4ac0b73692ce",
            "resource": {
                "resourceType": "Patient",
                "meta": {
                    "profile": [
                        "http://hl7.org/fhir/us/core/StructureDefinition/us-core-patient"
                    ]
                },
                "id": "1bb622d3-69a5-3b1b-957e-4ac0b73692ce",
                "identifier": [
                    {
                        "system": "http://hl7.org/fhir/sid/us-ssn",
                        "value": "414122222"
                    }
                ],
                "name": [
                    {
                        "use": "usual",
                        "family": "Maur",
                        "given": [
                            "Richard"
                        ],
                        "suffix": [
                            "jr"
                        ]
                    }
                ],
                "birthDate": "1980-08-01",
                "gender": "male",
                "extension": [
                    {
                        "url": "http://hl7.org/fhir/us/core/StructureDefinition/us-core-race",
                        "extension": [
                            {
                                "url": "ombCategory",
                                "valueCoding": {
                                    "system": "http://terminology.hl7.org/CodeSystem/v3-NullFlavor",
                                    "code": "UNK",
                                    "display": "Unknown"
                                }
                            },
                            {
                                "url": "ombCategory",
                                "valueCoding": {
                                    "system": "http://terminology.hl7.org/CodeSystem/v3-NullFlavor",
                                    "code": "UNK",
                                    "display": "Unknown"
                                }
                            },
                            {
                                "url": "text",
                                "valueString": "Mixed"
                            }
                        ]
                    },
                    {
                        "url": "http://hl7.org/fhir/us/core/StructureDefinition/us-core-ethnicity",
                        "extension": [
                            {
                                "url": "ombCategory",
                                "valueCoding": {
                                    "system": "http://terminology.hl7.org/CodeSystem/v3-NullFlavor",
                                    "code": "UNK",
                                    "display": "Unknown"
                                }
                            },
                            {
                                "url": "text",
                                "valueString": "Unknown"
                            }
                        ]
                    }
                ],
                "address": [
                    {
                        "use": "home",
                        "line": [
                            "1357 Amber Dr"
                        ],
                        "city": "Beaverton",
                        "state": "OR",
                        "country": "US",
                        "postalCode": "97006"
                    }
                ],
                "telecom": [
                    {
                        "system": "phone",
                        "value": "+1(555)-777-1234",
                        "use": "mobile"
                    },
                    {
                        "system": "phone",
                        "value": "+1(555)-723-1544",
                        "use": "home"
                    }
                ],
                "communication": [
                    {
                        "language": {
                            "coding": [
                                {
                                    "system": "urn:ietf:bcp:47",
                                    "code": "en",
                                    "display": "English"
                                }
                            ]
                        },
                        "preferred": true
                    }
                ]
            },
            "request": {
                "method": "PUT",
                "url": "Patient/1bb622d3-69a5-3b1b-957e-4ac0b73692ce"
            }
        },
        {
            "fullUrl": "urn:uuid:06dff265-4f31-3d10-a5bb-874e7468e625",
            "resource": {
                "resourceType": "AllergyIntolerance",
                "id": "06dff265-4f31-3d10-a5bb-874e7468e625",
                "identifier": [
                    {
                        "system": "urn:ietf:rfc:3986",
                        "value": "urn:uuid:4adc1020-7b16-11db-9fe1-0832200c9a66"
                    }
                ],
                "clinicalStatus": {
                    "coding": [
                        {
                            "system": "http://terminology.hl7.org/CodeSystem/allergyintolerance-clinical",
                            "code": "active"
                        }
                    ]
                },
                "patient": {
                    "reference": "Patient/1bb622d3-69a5-3b1b-957e-4ac0b73692ce"
                }
            },
            "request": {
                "method": "PUT",
                "url": "AllergyIntolerance/06dff265-4f31-3d10-a5bb-874e7468e625"
            }
        },
        {
            "fullUrl": "urn:uuid:3d2d8e84-8baf-3747-a71c-236ad210248a",
            "resource": {
                "resourceType": "MedicationStatement",
                "id": "3d2d8e84-8baf-3747-a71c-236ad210248a",
                "identifier": [
                    {
                        "system": "urn:ietf:rfc:3986",
                        "value": "urn:uuid:cdbd33f0-6cde-11db-9fe1-0833200c9a66"
                    }
                ],
                "status": "active",
                "subject": {
                    "reference": "Patient/1bb622d3-69a5-3b1b-957e-4ac0b73692ce"
                },
                "medicationReference": {
                    "reference": "Medication/b7d222c7-6650-3979-900d-2eb81e484241"
                }
            },
            "request": {
                "method": "PUT",
                "url": "MedicationStatement/3d2d8e84-8baf-3747-a71c-236ad210248a"
            }
        },
        {
            "fullUrl": "urn:uuid:b7d222c7-6650-3979-900d-2eb81e484241",
            "resource": {
                "resourceType": "Medication",
                "id": "b7d222c7-6650-3979-900d-2eb81e484241",
                "code": {
                    "coding": [
                        {
                            "code": "410942007",
                            "display": "drug or medication",
                            "system": "http://snomed.info/sct"
                        }
                    ]
                }
            },
            "request": {
                "method": "PUT",
                "url": "Medication/b7d222c7-6650-3979-900d-2eb81e484241"
            }
        },
        {
            "fullUrl": "urn:uuid:a944fae4-b295-3ead-8f78-32a4cf8b766c",
            "resource": {
                "resourceType": "Condition",
                "id": "a944fae4-b295-3ead-8f78-32a4cf8b766c",
                "identifier": [
                    {
                        "system": "urn:ietf:rfc:3986",
                        "value": "urn:uuid:ac416033-3cc1-4485-ab31-36ce7669f55c"
                    }
                ],
                "code": {
                    "coding": [
                        {
                            "code": "V49.75",
                            "display": "Below Knee Amputation Status",
                            "system": "urn:oid:2.16.840.1.113883.6.103"
                        }
                    ]
                },
                "onsetDateTime": "2014-04-02",
                "subject": {
                    "reference": "Patient/1bb622d3-69a5-3b1b-957e-4ac0b73692ce"
                }
            },
            "request": {
                "method": "PUT",
                "url": "Condition/a944fae4-b295-3ead-8f78-32a4cf8b766c"
            }
        },
        {
            "fullUrl": "urn:uuid:f45ca929-8bb6-33fe-b914-3d94b5a64c3a",
            "resource": {
                "resourceType": "Condition",
                "id": "f45ca929-8bb6-33fe-b914-3d94b5a64c3a",
                "identifier": [
                    {
                        "system": "urn:ietf:rfc:3986",
                        "value": "urn:uuid:35e97377-b63b-4e6a-a53e-9cfb016bea0b"
                    }
                ],
                "code": {
                    "coding": [
                        {
                            "code": "385093006",
                            "display": "Community Acquired Pneumonia",
                            "system": "http://snomed.info/sct"
                        }
                    ]
                },
                "onsetDateTime": "2014-02-27",
                "subject": {
                    "reference": "Patient/1bb622d3-69a5-3b1b-957e-4ac0b73692ce"
                }
            },
            "request": {
                "method": "PUT",
                "url": "Condition/f45ca929-8bb6-33fe-b914-3d94b5a64c3a"
            }
        },
        {
            "fullUrl": "urn:uuid:71eea071-381c-38a7-80ee-bf37ffbc7ddc",
            "resource": {
                "resourceType": "Observation",
                "meta": {
                    "profile": [
                        "http://hl7.org/fhir/us/core/StructureDefinition/us-core-observationresults"
                    ]
                },
                "id": "71eea071-381c-38a7-80ee-bf37ffbc7ddc",
                "identifier": [
                    {
                        "system": "urn:oid:2.16.840.1.113883.19",
                        "value": "123456789"
                    }
                ],
                "category": [
                    {
                        "coding": [
                            {
                                "system": "http://terminology.hl7.org/CodeSystem/observation-category",
                                "code": "social-history"
                            }
                        ]
                    }
                ],
                "status": "final",
                "code": {
                    "coding": [
                        {
                            "code": "72166-2",
                            "display": "Tobacco smoking status NHIS",
                            "system": "http://loinc.org"
                        }
                    ]
                },
                "effectiveDateTime": "2015-07-22",
                "valueCodeableConcept": {
                    "coding": [
                        {
                            "code": "449868002",
                            "display": "Current every day smoker",
                            "system": "http://snomed.info/sct"
                        }
                    ]
                },
                "subject": {
                    "reference": "Patient/1bb622d3-69a5-3b1b-957e-4ac0b73692ce"
                }
            },
            "request": {
                "method": "PUT",
                "url": "Observation/71eea071-381c-38a7-80ee-bf37ffbc7ddc"
            }
        },
        {
            "fullUrl": "urn:uuid:d96a6b07-aae9-3e36-9171-74ba17b4517c",
            "resource": {
                "resourceType": "Observation",
                "meta": {
                    "profile": [
                        "http://hl7.org/fhir/us/core/StructureDefinition/us-core-observationresults"
                    ]
                },
                "id": "d96a6b07-aae9-3e36-9171-74ba17b4517c",
                "category": [
                    {
                        "coding": [
                            {
                                "system": "http://terminology.hl7.org/CodeSystem/observation-category",
                                "code": "social-history"
                            }
                        ]
                    }
                ],
                "status": "final",
                "code": {
                    "coding": [
                        {
                            "code": "76689-9",
                            "display": "Sex Assigned At Birth",
                            "system": "http://loinc.org"
                        }
                    ]
                },
                "effectiveDateTime": "2015-07-22",
                "valueCodeableConcept": {
                    "coding": [
                        {
                            "code": "M",
                            "display": "Male",
                            "system": "urn:oid:2.16.840.1.113883.5.1"
                        }
                    ]
                },
                "subject": {
                    "reference": "Patient/1bb622d3-69a5-3b1b-957e-4ac0b73692ce"
                }
            },
            "request": {
                "method": "PUT",
                "url": "Observation/d96a6b07-aae9-3e36-9171-74ba17b4517c"
            }
        },
        {
            "fullUrl": "urn:uuid:00150e8a-03b7-3f77-95e9-36ca5e2805af",
            "resource": {
                "resourceType": "Immunization",
                "id": "00150e8a-03b7-3f77-95e9-36ca5e2805af",
                "identifier": [
                    {
                        "system": "urn:ietf:rfc:3986",
                        "value": "urn:uuid:de10790f-1496-4729-8fe6-f1b87b6219f7"
                    }
                ],
                "status": "active",
                "patient": {
                    "reference": "Patient/1bb622d3-69a5-3b1b-957e-4ac0b73692ce"
                }
            },
            "request": {
                "method": "PUT",
                "url": "Immunization/00150e8a-03b7-3f77-95e9-36ca5e2805af"
            }
        },
        {
            "fullUrl": "urn:uuid:a2ce8660-e715-3825-9f17-67c4fdd1a5b5",
            "resource": {
                "resourceType": "Procedure",
                "meta": {
                    "profile": [
                        "http://hl7.org/fhir/us/core/StructureDefinition/us-core-procedure"
                    ]
                },
                "id": "a2ce8660-e715-3825-9f17-67c4fdd1a5b5",
                "identifier": [
                    {
                        "system": "urn:ietf:rfc:3986",
                        "value": "urn:uuid:d5b614bd-01ce-410d-8728-e1fd01dcc72a"
                    }
                ],
                "status": "completed",
                "code": {
                    "coding": [
                        {
                            "code": "71388002",
                            "display": "Procedure",
                            "system": "http://snomed.info/sct"
                        }
                    ]
                },
                "subject": {
                    "reference": "Patient/1bb622d3-69a5-3b1b-957e-4ac0b73692ce"
                }
            },
            "request": {
                "method": "PUT",
                "url": "Procedure/a2ce8660-e715-3825-9f17-67c4fdd1a5b5"
            }
        },
        {
            "fullUrl": "urn:uuid:2a2162f4-6c86-3281-9b30-b3bbb9e81349",
            "resource": {
                "resourceType": "DocumentReference",
                "id": "2a2162f4-6c86-3281-9b30-b3bbb9e81349",
                "type": {
                    "coding": [
                        {
                            "code": "34133-9",
                            "display": "Summarization of Episode Note",
                            "system": "http://loinc.org"
                        }
                    ]
                },
                "date": "2021-07-02T05:58:06.114Z",
                "status": "current",
                "content": [
                    {
                        "attachment": {
                            "contentType": "text/plain",
                            "data": "",
                            "hash": "1hrccJMH+NWLgp5HyEbHKkQyukY="
                        }
                    }
                ]
            },
            "request": {
                "method": "PUT",
                "url": "DocumentReference/2a2162f4-6c86-3281-9b30-b3bbb9e81349"
            }
        }
    ]
}