[
  {
    "resourceType": "Medication",
    "id": "01992c21-cf76-7e91-9900-fbddc33cfd9e",
    "status": "active",
    "code": {
      "coding": [
        {
          "system": "http://www.nlm.nih.gov/research/umls/rxnorm",
          "code": "197797",
          "display": "Hydroxyurea"
        }
      ]
    }
  },
  {
    "resourceType": "MedicationStatement",
    "id": "01992c21-cf77-7edf-a472-a2148a6dea1c",
    "status": "active",
    "medicationReference": {
      "reference": "Medication/01992c21-cf76-7e91-9900-fbddc33cfd9e"
    },
    "dosage": [
      {
        "text": "500 mg",
        "doseAndRate": [
          {
            "rateQuantity": {
              "value": 1,
              "unit": "mg"
            }
          }
        ]
      }
    ]
  },
  {
    "resourceType": "Medication",
    "id": "01992c21-cf77-7edf-a472-a215421c2d7b",
    "status": "active",
    "code": {
      "coding": [
        {
          "system": "http://www.nlm.nih.gov/research/umls/rxnorm",
          "code": "6802",
          "display": "Metamucil"
        }
      ]
    }
  },
  {
    "resourceType": "MedicationStatement",
    "id": "01992c21-cf77-7edf-a472-a216fc06e062",
    "status": "active",
    "medicationReference": {
      "reference": "Medication/01992c21-cf77-7edf-a472-a215421c2d7b"
    },
    "dosage": [
      {
        "text": "three teaspoons",
        "doseAndRate": [
          {
            "rateQuantity": {
              "value": 1,
              "unit": "mg"
            }
          }
        ]
      }
    ]
  },
  {
    "resourceType": "Medication",
    "id": "01992c21-cf77-7edf-a472-a2178f976d3a",
    "status": "active",
    "code": {
      "coding": [
        {
          "system": "http://www.nlm.nih.gov/research/umls/rxnorm",
          "code": "856845",
          "display": "amitriptyline"
        }
      ]
    }
  },
  {
    "resourceType": "MedicationStatement",
    "id": "01992c21-cf77-7edf-a472-a218234aaf52",
    "status": "active",
    "medicationReference": {
      "reference": "Medication/01992c21-cf77-7edf-a472-a2178f976d3a"
    },
    "dosage": [
      {
        "text": "50 mg",
        "doseAndRate": [
          {
            "rateQuantity": {
              "value": 1,
              "unit": "mg"
            }
          }
        ]
      }
    ]
  },
  {
    "resourceType": "Medication",
    "id": "01992c21-cf77-7edf-a472-a21971e54422",
    "status": "active",
    "code": {
      "coding": [
        {
          "system": "http://www.nlm.nih.gov/research/umls/rxnorm",
          "code": "966250",
          "display": "Synthroid"
        }
      ]
    }
  },
  {
    "resourceType": "MedicationStatement",
    "id": "01992c21-cf77-7edf-a472-a21a037d5249",
    "status": "active",
    "medicationReference": {
      "reference": "Medication/01992c21-cf77-7edf-a472-a21971e54422"
    },
    "dosage": [
      {
        "text": "0.1 mg",
        "doseAndRate": [
          {
            "rateQuantity": {
              "value": 1,
              "unit": "mg"
            }
          }
        ]
      }
    ]
  },
  {
    "resourceType": "Medication",
    "id": "01992c21-cf77-7edf-a472-a21b7ddfe10f",
    "status": "active",
    "code": {
      "coding": [
        {
          "system": "http://www.nlm.nih.gov/research/umls/rxnorm",
          "code": "854878",
          "display": "Ambien"
        }
      ]
    }
  },
  {
    "resourceType": "MedicationStatement",
    "id": "01992c21-cf77-7edf-a472-a21c0302ac61",
    "status": "active",
    "medicationReference": {
      "reference": "Medication/01992c21-cf77-7edf-a472-a21b7ddfe10f"
    },
    "dosage": [
      {
        "text": "5 mg",
        "doseAndRate": [
          {
            "rateQuantity": {
              "value": 1,
              "unit": "mg"
            }
          }
        ]
      }
    ]
  },
  {
    "resourceType": "Medication",
    "id": "01992c21-cf77-7edf-a472-a21dddb45b9d",
    "status": "active",
    "code": {
      "coding": [
        {
          "system": "http://www.nlm.nih.gov/research/umls/rxnorm",
          "code": "310818",
          "display": "triamterene/hydrochlorothiazide"
        }
      ]
    }
  },
  {
    "resourceType": "MedicationStatement",
    "id": "01992c21-cf77-7edf-a472-a21e069ff5dc",
    "status": "active",
    "medicationReference": {
      "reference": "Medication/01992c21-cf77-7edf-a472-a21dddb45b9d"
    },
    "dosage": [
      {
        "text": "75/50",
        "doseAndRate": [
          {
            "rateQuantity": {
              "value": 1,
              "unit": "mg"
            }
          }
        ]
      }
    ]
  },
  {
    "resourceType": "Medication",
    "id": "01992c21-cf77-7edf-a472-a21fe7cebe0a",
    "status": "active",
    "code": {
      "coding": [
        {
          "system": "http://www.nlm.nih.gov/research/umls/rxnorm",
          "code": "144254",
          "display": "Lortab"
        }
      ]
    }
  },
  {
    "resourceType": "MedicationStatement",
    "id": "01992c21-cf77-7edf-a472-a22078d6dde3",
    "status": "active",
    "medicationReference": {
      "reference": "Medication/01992c21-cf77-7edf-a472-a21fe7cebe0a"
    },
    "dosage": [
      {
        "text": "5/500",
        "doseAndRate": [
          {
            "rateQuantity": {
              "value": 1,
              "unit": "mg"
            }
          }
        ]
      }
    ]
  }
]