[
  {
    "resourceType": "Medication",
    "id": "01995032-2b8e-7c1e-9190-6c0e5729b6b0",
    "status": "active",
    "code": {
      "text": "Heparin",
      "coding": [
        {
          "system": "http://www.nlm.nih.gov/research/umls/rxnorm",
          "code": "1659263",
          "display": "Heparin"
        }
      ]
    },
    "amount": {
      "numerator": {
        "value": 1000,
        "unit": "U",
        "system": "http://unitsofmeasure.org",
        "code": "U"
      },
      "denominator": {
        "value": 1,
        "unit": "mL",
        "system": "http://unitsofmeasure.org",
        "code": "mL"
      }
    },
    "extension": [
      {
        "url": "https://metriport.com/data-extraction",
        "valueString": "Heparin 1000 units/mL injection, 5,000 units subcutaneously in the left thigh every 12 hours at a rate of 1 mL/min",
        "valueReference": {
          "reference": "Encounter/7669de0c-65b9-4b03-87e0-9b0ac3261fb7"
        }
      }
    ]
  },
  {
    "resourceType": "MedicationStatement",
    "id": "01995032-2b8e-7c1e-9190-6c0f2a2c44df",
    "status": "active",
    "medicationReference": {
      "reference": "Medication/01995032-2b8e-7c1e-9190-6c0e5729b6b0"
    },
    "subject": {
      "reference": "Patient/92b5ff9e-415b-49f1-9bf3-2a4a8ca443aa",
      "id": "92b5ff9e-415b-49f1-9bf3-2a4a8ca443aa"
    },
    "dosage": [
      {
        "text": "5,000 units",
        "doseAndRate": [
          {
            "extension": [
              {
                "url": "https://metriport.com/data-extraction",
                "valueString": "5,000 units"
              }
            ],
            "doseQuantity": {
              "value": 5000,
              "unit": "U",
              "system": "http://unitsofmeasure.org",
              "code": "U"
            }
          }
        ]
      }
    ],
    "extension": [
      {
        "url": "https://metriport.com/data-extraction",
        "valueString": "Heparin 1000 units/mL injection, 5,000 units subcutaneously in the left thigh every 12 hours at a rate of 1 mL/min",
        "valueReference": {
          "reference": "Encounter/7669de0c-65b9-4b03-87e0-9b0ac3261fb7"
        }
      }
    ]
  }
]