[
  {
    "resourceType": "Medication",
    "id": "01995066-3468-76fb-b330-38ab3905a6f7",
    "status": "active",
    "code": {
      "text": "Hydrocortisone",
      "coding": [
        {
          "system": "http://www.nlm.nih.gov/research/umls/rxnorm",
          "code": "5492",
          "display": "hydrocortisone"
        }
      ]
    },
    "form": {
      "coding": [
        {
          "system": "http://snomed.info/sct",
          "code": "385099005",
          "display": "cream"
        }
      ]
    },
    "extension": [
      {
        "url": "https://metriport.com/data-extraction",
        "valueString": "2 grams of Hydrocortisone cream to affected area twice daily",
        "valueReference": {
          "reference": "Encounter/7669de0c-65b9-4b03-87e0-9b0ac3261fb7"
        }
      }
    ]
  },
  {
    "resourceType": "MedicationStatement",
    "id": "01995066-3468-76fb-b330-38ac8f00f810",
    "status": "active",
    "medicationReference": {
      "reference": "Medication/01995066-3468-76fb-b330-38ab3905a6f7"
    },
    "subject": {
      "reference": "Patient/92b5ff9e-415b-49f1-9bf3-2a4a8ca443aa",
      "id": "92b5ff9e-415b-49f1-9bf3-2a4a8ca443aa"
    },
    "dosage": [
      {
        "text": "2 grams"
      }
    ],
    "extension": [
      {
        "url": "https://metriport.com/data-extraction",
        "valueString": "2 grams of Hydrocortisone cream to affected area twice daily",
        "valueReference": {
          "reference": "Encounter/7669de0c-65b9-4b03-87e0-9b0ac3261fb7"
        }
      }
    ]
  }
]