[
  {
    "resourceType": "Medication",
    "id": "01995066-3469-7466-b942-c2119ff90c43",
    "status": "active",
    "code": {
      "text": "Prednisone",
      "coding": [
        {
          "system": "http://www.nlm.nih.gov/research/umls/rxnorm",
          "code": "312615",
          "display": "prednisone 20 mg oral tablet"
        }
      ]
    },
    "form": {
      "coding": [
        {
          "system": "http://snomed.info/sct",
          "code": "385055001",
          "display": "tablet"
        }
      ]
    },
    "amount": {
      "numerator": {
        "value": 40,
        "unit": "mg",
        "system": "http://unitsofmeasure.org",
        "code": "mg"
      },
      "extension": [
        {
          "url": "https://metriport.com/data-extraction",
          "valueString": "40 mg"
        }
      ]
    },
    "extension": [
      {
        "url": "https://metriport.com/data-extraction",
        "valueString": "Prednisone 40 mg tablet, take one tablet by mouth daily for 5 days",
        "valueReference": {
          "reference": "Encounter/7669de0c-65b9-4b03-87e0-9b0ac3261fb7"
        }
      }
    ]
  },
  {
    "resourceType": "MedicationStatement",
    "id": "01995066-3469-7466-b942-c2129a7a74a0",
    "status": "active",
    "medicationReference": {
      "reference": "Medication/01995066-3469-7466-b942-c2119ff90c43"
    },
    "subject": {
      "reference": "Patient/92b5ff9e-415b-49f1-9bf3-2a4a8ca443aa",
      "id": "92b5ff9e-415b-49f1-9bf3-2a4a8ca443aa"
    },
    "dosage": [
      {
        "text": "one tablet",
        "doseAndRate": [
          {
            "extension": [
              {
                "url": "https://metriport.com/data-extraction",
                "valueString": "one tablet"
              }
            ],
            "doseQuantity": {
              "value": 1,
              "unit": "U",
              "system": "http://unitsofmeasure.org",
              "code": "U"
            }
          }
        ]
      }
    ],
    "effectivePeriod": {
      "extension": [
        {
          "url": "https://metriport.com/data-extraction",
          "valueString": "5 days"
        }
      ],
      "start": "2025-02-05",
      "end": "2025-02-10"
    },
    "extension": [
      {
        "url": "https://metriport.com/data-extraction",
        "valueString": "Prednisone 40 mg tablet, take one tablet by mouth daily for 5 days",
        "valueReference": {
          "reference": "Encounter/7669de0c-65b9-4b03-87e0-9b0ac3261fb7"
        }
      }
    ]
  }
]