{
    "resourceType": "Bundle",
    "type": "transaction",
    "entry": [
        {
            "fullUrl": "urn:uuid:0e47b8f3-3dba-3840-9cfd-a928125ac5ba",
            "resource": {
                "resourceType": "Patient",
                "id": "0e47b8f3-3dba-3840-9cfd-a928125ac5ba",
                "identifier": [
                    {
                        "value": "555-44-4444"
                    },
                    {
                        "value": "67-A4335",
                        "type": {
                            "coding": [
                                {
                                    "code": "DL"
                                }
                            ]
                        },
                        "system": "OH",
                        "period": {
                            "end": "2003-05-20"
                        }
                    }
                ],
                "name": [
                    {
                        "family": "EVERYWOMAN",
                        "given": [
                            "EVE",
                            "E"
                        ],
                        "use": "official"
                    }
                ],
                "birthDate": "1962-03-20",
                "gender": "female",
                "address": [
                    {
                        "line": [
                            "153 FERNWOOD DR."
                        ],
                        "city": "STATESVILLE",
                        "state": "OH",
                        "postalCode": "35292"
                    }
                ],
                "telecom": [
                    {
                        "value": "(206)3345232",
                        "use": "home"
                    },
                    {
                        "value": "(206)752-121",
                        "use": "work"
                    }
                ]
            },
            "request": {
                "method": "PUT",
                "url": "Patient/0e47b8f3-3dba-3840-9cfd-a928125ac5ba"
            }
        },
        {
            "fullUrl": "urn:uuid:6416213d-b637-35d6-bdab-946c5551bc2d",
            "resource": {
                "resourceType": "DiagnosticReport",
                "id": "6416213d-b637-35d6-bdab-946c5551bc2d",
                "identifier": [
                    {
                        "type": {
                            "coding": [
                                {
                                    "code": "FILL",
                                    "system": "http://terminology.hl7.org/CodeSystem/v2-0203"
                                }
                            ]
                        }
                    },
                    {
                        "value": "845439"
                    },
                    {
                        "value": "1045813"
                    }
                ],
                "effectiveDateTime": "2002-02-15T07:30:00.000Z",
                "code": {
                    "coding": [
                        {
                            "code": "15545",
                            "display": "GLUCOSE"
                        }
                    ]
                },
                "status": "final",
                "result": [
                    {
                        "reference": "Observation/c87d6d3e-3df7-334c-a666-ee8c5b6df021"
                    }
                ]
            },
            "request": {
                "method": "PUT",
                "url": "DiagnosticReport/6416213d-b637-35d6-bdab-946c5551bc2d"
            }
        },
        {
            "fullUrl": "urn:uuid:c87d6d3e-3df7-334c-a666-ee8c5b6df021",
            "resource": {
                "resourceType": "Observation",
                "id": "c87d6d3e-3df7-334c-a666-ee8c5b6df021",
                "code": {
                    "coding": [
                        {
                            "code": "1554-5",
                            "display": "GLUCOSE",
                            "system": "POST 12H CFST:MCNC:PT:SER/PLAS:QN"
                        }
                    ]
                },
                "valueQuantity": {
                    "code": "mg/dl"
                },
                "valueRange": {
                    "low": {
                        "value": "182"
                    }
                },
                "interpretation": [
                    {
                        "coding": [
                            {
                                "code": "H",
                                "display": "High",
                                "system": "http://terminology.hl7.org/CodeSystem/v3-ObservationInterpretation"
                            }
                        ]
                    }
                ],
                "status": "final",
                "component": [
                    {
                        "code": {
                            "coding": [
                                {
                                    "code": "1554-5",
                                    "display": "GLUCOSE",
                                    "system": "POST 12H CFST:MCNC:PT:SER/PLAS:QN"
                                }
                            ]
                        },
                        "valueQuantity": {
                            "code": "mg/dl"
                        },
                        "valueRange": {
                            "low": {
                                "value": "182"
                            }
                        },
                        "referenceRange": [
                            {
                                "text": "70_105"
                            }
                        ],
                        "interpretation": [
                            {
                                "coding": [
                                    {
                                        "code": "H",
                                        "display": "High",
                                        "system": "http://terminology.hl7.org/CodeSystem/v3-ObservationInterpretation"
                                    }
                                ]
                            }
                        ]
                    }
                ],
                "subject": {
                    "reference": "Patient/0e47b8f3-3dba-3840-9cfd-a928125ac5ba"
                }
            },
            "request": {
                "method": "PUT",
                "url": "Observation/c87d6d3e-3df7-334c-a666-ee8c5b6df021"
            }
        }
    ]
}