[
  {
    "resourceType": "Medication",
    "id": "01995032-2b8f-7ee9-b9a2-9544a7c12bb6",
    "status": "active",
    "code": {
      "text": "Metformin",
      "coding": [
        {
          "system": "http://www.nlm.nih.gov/research/umls/rxnorm",
          "code": "861007",
          "display": "Metformin"
        }
      ]
    },
    "extension": [
      {
        "url": "https://metriport.com/data-extraction",
        "valueString": "Metformin 500 mg twice daily",
        "valueReference": {
          "reference": "Encounter/7669de0c-65b9-4b03-87e0-9b0ac3261fb7"
        }
      }
    ]
  },
  {
    "resourceType": "MedicationStatement",
    "id": "01995032-2b8f-7ee9-b9a2-9545f2efb8de",
    "status": "active",
    "medicationReference": {
      "reference": "Medication/01995032-2b8f-7ee9-b9a2-9544a7c12bb6"
    },
    "subject": {
      "reference": "Patient/92b5ff9e-415b-49f1-9bf3-2a4a8ca443aa",
      "id": "92b5ff9e-415b-49f1-9bf3-2a4a8ca443aa"
    },
    "dosage": [
      {
        "text": "500 mg",
        "doseAndRate": [
          {
            "extension": [
              {
                "url": "https://metriport.com/data-extraction",
                "valueString": "500 mg"
              }
            ],
            "doseQuantity": {
              "value": 500,
              "unit": "mg",
              "system": "http://unitsofmeasure.org",
              "code": "mg"
            }
          }
        ]
      }
    ],
    "extension": [
      {
        "url": "https://metriport.com/data-extraction",
        "valueString": "Metformin 500 mg twice daily",
        "valueReference": {
          "reference": "Encounter/7669de0c-65b9-4b03-87e0-9b0ac3261fb7"
        }
      }
    ]
  },
  {
    "resourceType": "Medication",
    "id": "01995032-2b8f-7ee9-b9a2-9546803bd654",
    "status": "active",
    "code": {
      "text": "Atorvastatin",
      "coding": [
        {
          "system": "http://www.nlm.nih.gov/research/umls/rxnorm",
          "code": "617310",
          "display": "Atorvastatin"
        }
      ]
    },
    "extension": [
      {
        "url": "https://metriport.com/data-extraction",
        "valueString": "Atorvastatin 20 mg at bedtime",
        "valueReference": {
          "reference": "Encounter/7669de0c-65b9-4b03-87e0-9b0ac3261fb7"
        }
      }
    ]
  },
  {
    "resourceType": "MedicationStatement",
    "id": "01995032-2b8f-7ee9-b9a2-95477121376d",
    "status": "active",
    "medicationReference": {
      "reference": "Medication/01995032-2b8f-7ee9-b9a2-9546803bd654"
    },
    "subject": {
      "reference": "Patient/92b5ff9e-415b-49f1-9bf3-2a4a8ca443aa",
      "id": "92b5ff9e-415b-49f1-9bf3-2a4a8ca443aa"
    },
    "dosage": [
      {
        "text": "20 mg",
        "doseAndRate": [
          {
            "extension": [
              {
                "url": "https://metriport.com/data-extraction",
                "valueString": "20 mg"
              }
            ],
            "doseQuantity": {
              "value": 20,
              "unit": "mg",
              "system": "http://unitsofmeasure.org",
              "code": "mg"
            }
          }
        ]
      }
    ],
    "extension": [
      {
        "url": "https://metriport.com/data-extraction",
        "valueString": "Atorvastatin 20 mg at bedtime",
        "valueReference": {
          "reference": "Encounter/7669de0c-65b9-4b03-87e0-9b0ac3261fb7"
        }
      }
    ]
  }
]