[
  {
    "resourceType": "Medication",
    "id": "01995032-2b8b-7099-b474-695505907a7c",
    "status": "active",
    "code": {
      "text": "Acetaminophen",
      "coding": [
        {
          "system": "http://www.nlm.nih.gov/research/umls/rxnorm",
          "code": "198440",
          "display": "Acetaminophen"
        }
      ]
    },
    "form": {
      "coding": [
        {
          "system": "http://snomed.info/sct",
          "code": "385055001",
          "display": "tablet"
        }
      ]
    },
    "amount": {
      "numerator": {
        "value": 500,
        "unit": "mg",
        "system": "http://unitsofmeasure.org",
        "code": "mg"
      }
    },
    "extension": [
      {
        "url": "https://metriport.com/data-extraction",
        "valueString": "Acetaminophen 500 mg tablet",
        "valueReference": {
          "reference": "Encounter/7669de0c-65b9-4b03-87e0-9b0ac3261fb7"
        }
      }
    ]
  },
  {
    "resourceType": "MedicationStatement",
    "id": "01995032-2b8c-7472-af94-db366b9ec090",
    "status": "active",
    "medicationReference": {
      "reference": "Medication/01995032-2b8b-7099-b474-695505907a7c"
    },
    "subject": {
      "reference": "Patient/92b5ff9e-415b-49f1-9bf3-2a4a8ca443aa",
      "id": "92b5ff9e-415b-49f1-9bf3-2a4a8ca443aa"
    },
    "dosage": [
      {}
    ],
    "extension": [
      {
        "url": "https://metriport.com/data-extraction",
        "valueString": "Acetaminophen 500 mg tablet",
        "valueReference": {
          "reference": "Encounter/7669de0c-65b9-4b03-87e0-9b0ac3261fb7"
        }
      }
    ]
  }
]