[
  {
    "resourceType": "Medication",
    "id": "01995080-f8f1-7a11-aeb7-31c6f8e709d9",
    "status": "active",
    "code": {
      "text": "Acetaminophen",
      "coding": [
        {
          "system": "http://www.nlm.nih.gov/research/umls/rxnorm",
          "code": "198440",
          "display": "acetaminophen 500 mg oral tablet"
        }
      ]
    },
    "form": {
      "coding": [
        {
          "system": "http://snomed.info/sct",
          "code": "385055001",
          "display": "tablet"
        }
      ]
    },
    "amount": {
      "numerator": {
        "value": 500,
        "unit": "mg",
        "system": "http://unitsofmeasure.org",
        "code": "mg"
      },
      "extension": [
        {
          "url": "https://metriport.com/data-extraction",
          "valueString": "500 mg"
        }
      ]
    },
    "extension": [
      {
        "url": "https://metriport.com/data-extraction",
        "valueString": "Acetaminophen 500 mg tablet",
        "valueReference": {
          "reference": "Encounter/7669de0c-65b9-4b03-87e0-9b0ac3261fb7"
        },
        "valueRange": {
          "low": {
            "value": 5
          },
          "high": {
            "value": 32
          }
        }
      }
    ]
  },
  {
    "resourceType": "MedicationStatement",
    "id": "01995080-f8f2-7d06-9e56-93b25d63c36e",
    "status": "active",
    "medicationReference": {
      "reference": "Medication/01995080-f8f1-7a11-aeb7-31c6f8e709d9"
    },
    "subject": {
      "reference": "Patient/92b5ff9e-415b-49f1-9bf3-2a4a8ca443aa",
      "id": "92b5ff9e-415b-49f1-9bf3-2a4a8ca443aa"
    },
    "dosage": [
      {}
    ],
    "extension": [
      {
        "url": "https://metriport.com/data-extraction",
        "valueString": "Acetaminophen 500 mg tablet",
        "valueReference": {
          "reference": "Encounter/7669de0c-65b9-4b03-87e0-9b0ac3261fb7"
        },
        "valueRange": {
          "low": {
            "value": 5
          },
          "high": {
            "value": 32
          }
        }
      }
    ]
  }
]